- text_key: id_col\n  col_key: id_col\n  field_key: .na.character\n  type: column\n  label: ID column\n  description: Unique subject identifier variable name.\n  multiple: no\n  standard_adam: USUBJID\n  standard_sdtm: USUBJID\n- text_key: seq_col\n  col_key: seq_col\n  field_key: .na.character\n  type: column\n  label: Sequence column\n  description: Event sequence number variable name\n  multiple: no\n  standard_adam: ASEQ\n  standard_sdtm: AESEQ\n- text_key: stdy_col\n  col_key: stdy_col\n  field_key: .na.character\n  type: column\n  label: AE Start day column\n  description: Event start day variable name\n  multiple: no\n  standard_adam: ASTDY\n  standard_sdtm: AESTDY\n- text_key: endy_col\n  col_key: endy_col\n  field_key: .na.character\n  type: column\n  label: AE End day column\n  description: Event end day variable name\n  multiple: no\n  standard_adam: AENDY\n  standard_sdtm: AEENDY\n- text_key: term_col\n  col_key: term_col\n  field_key: .na.character\n  type: column\n  label: Preferred Term Column\n  description: verbatim adverse event text variable name\n  multiple: no\n  standard_adam: AETERM\n  standard_sdtm: AETERM\n- text_key: bodsys_col\n  col_key: bodsys_col\n  field_key: .na.character\n  type: column\n  label: AE Body System\n  description: AE Body System\n  multiple: no\n  standard_adam: AEBODSYS\n  standard_sdtm: AEBODSYS\n- text_key: detail_col\n  col_key: detail_col\n  field_key: .na.character\n  type: column\n  label: Details\n  description: Details\n  multiple: yes\n  standard_adam: .na.character\n  standard_sdtm: .na.character\n- text_key: filter_cols\n  col_key: filter_cols\n  field_key: .na.character\n  type: column\n  label: Filters\n  description: Filters\n  multiple: yes\n  standard_adam: .na.character\n  standard_sdtm: .na.character\n