USUBJID,SITEID,SITE,AGE,SEX,RACE,ARM,RFSTDTC,SAFFL,VISIT,VISITNUM,DT,DY,CAT,TEST,STRESU,STRESN,STNRLO,STNRHI,VISITN
01-001,1,Site 01,30,F,Other/Mixed,Placebo,5/21/2015,Y,Screening,0,5/21/2015,1,Blood,Platelet count,x 109/L,73.92167991,150,350,0
01-001,1,Site 01,30,F,Other/Mixed,Placebo,5/21/2015,Y,Screening,0,5/21/2015,1,Blood,RBC count,x 1012 cells/L,5.73306802,4.2,5.9,0
01-001,1,Site 01,30,F,Other/Mixed,Placebo,5/21/2015,Y,Screening,0,5/21/2015,1,Blood,WBC count,x 109 cells/L,5.364562591,4.5,11,0
01-001,1,Site 01,30,F,Other/Mixed,Placebo,5/21/2015,Y,Screening,0,5/21/2015,1,Serum,Albumin,g/L,48.89517548,35,55,0
01-001,1,Site 01,30,F,Other/Mixed,Placebo,5/21/2015,Y,Screening,0,5/21/2015,1,Serum,Alkaline phosphatase (ALP),µkat/L,,0.5,1.5,0
01-001,1,Site 01,30,F,Other/Mixed,Placebo,5/21/2015,Y,Screening,0,5/21/2015,1,Serum,"Aminotransferase, alanine (ALT)",pkat/L,0,0,0.58,0
01-001,1,Site 01,30,F,Other/Mixed,Placebo,5/21/2015,Y,Screening,0,5/21/2015,1,Serum,"Aminotransferase, aspartate (AST)",pkat/L,0.230454586,0,0.58,0
01-001,1,Site 01,30,F,Other/Mixed,Placebo,5/21/2015,Y,Screening,0,5/21/2015,1,Serum,Calcium,mmol/L,2.403642846,2.2,2.6,0
01-001,1,Site 01,30,F,Other/Mixed,Placebo,5/21/2015,Y,Screening,0,5/21/2015,1,Serum,Chloride,mmol/L,101.9777381,98,106,0
01-001,1,Site 01,30,F,Other/Mixed,Placebo,5/21/2015,Y,Screening,0,5/21/2015,1,Serum,Creatinine,µmol/L,54.95225247,61.9,115,0
01-001,1,Site 01,30,F,Other/Mixed,Placebo,5/21/2015,Y,Screening,0,5/21/2015,1,Serum,Direct Bilirubin,µmol/L,3.177028784,0,5.1,0
01-001,1,Site 01,30,F,Other/Mixed,Placebo,5/21/2015,Y,Screening,0,5/21/2015,1,Serum,IgE,mg/L,0.060768567,0.1,0.4,0
01-001,1,Site 01,30,F,Other/Mixed,Placebo,5/21/2015,Y,Screening,0,5/21/2015,1,Serum,Magnesium,mmol/L,0.671342727,0.62,0.99,0
01-001,1,Site 01,30,F,Other/Mixed,Placebo,5/21/2015,Y,Screening,0,5/21/2015,1,Serum,Potassium,mmol/L,2.971467289,3.5,5,0
01-001,1,Site 01,30,F,Other/Mixed,Placebo,5/21/2015,Y,Screening,0,5/21/2015,1,Serum,Sodium,mmol/L,144.5599686,136,145,0
01-001,1,Site 01,30,F,Other/Mixed,Placebo,5/21/2015,Y,Screening,0,5/21/2015,1,Serum,Total Bilirubin,µmol/L,28.70685806,5.1,20.5,0
01-001,1,Site 01,30,F,Other/Mixed,Placebo,5/21/2015,Y,Screening,0,5/21/2015,1,Vital Signs,Diastolic Blood Pressure,mmHg,67.94670986,60,80,0
01-001,1,Site 01,30,F,Other/Mixed,Placebo,5/21/2015,Y,Screening,0,5/21/2015,1,Vital Signs,Heart Rate,beats/minute,70.84276322,50,80,0
01-001,1,Site 01,30,F,Other/Mixed,Placebo,5/21/2015,Y,Screening,0,5/21/2015,1,Vital Signs,Respiratory Rate,breaths/minute,15.41376623,16,20,0
01-001,1,Site 01,30,F,Other/Mixed,Placebo,5/21/2015,Y,Screening,0,5/21/2015,1,Vital Signs,Systolic Blood Pressure,mmHg,77.34921264,90,120,0
01-001,1,Site 01,30,F,Other/Mixed,Placebo,5/21/2015,Y,Screening,0,5/21/2015,1,Vital Signs,Temperature,°C,36.84917873,36.6,37,0
01-001,1,Site 01,30,F,Other/Mixed,Placebo,5/21/2015,Y,Visit 1,1,7/17/2015,58,Blood,Platelet count,x 109/L,295.1331473,150,350,1
01-001,1,Site 01,30,F,Other/Mixed,Placebo,5/21/2015,Y,Visit 1,1,7/17/2015,58,Blood,RBC count,x 1012 cells/L,4.523621398,4.2,5.9,1
01-001,1,Site 01,30,F,Other/Mixed,Placebo,5/21/2015,Y,Visit 1,1,7/17/2015,58,Blood,WBC count,x 109 cells/L,9.784819721,4.5,11,1
01-001,1,Site 01,30,F,Other/Mixed,Placebo,5/21/2015,Y,Visit 1,1,7/17/2015,58,Serum,Albumin,g/L,53.67711057,35,55,1
01-001,1,Site 01,30,F,Other/Mixed,Placebo,5/21/2015,Y,Visit 1,1,7/17/2015,58,Serum,Alkaline phosphatase (ALP),µkat/L,0.61705197,0.5,1.5,1
01-001,1,Site 01,30,F,Other/Mixed,Placebo,5/21/2015,Y,Visit 1,1,7/17/2015,58,Serum,"Aminotransferase, alanine (ALT)",pkat/L,0.300926048,0,0.58,1
01-001,1,Site 01,30,F,Other/Mixed,Placebo,5/21/2015,Y,Visit 1,1,7/17/2015,58,Serum,"Aminotransferase, aspartate (AST)",pkat/L,0,0,0.58,1
01-001,1,Site 01,30,F,Other/Mixed,Placebo,5/21/2015,Y,Visit 1,1,7/17/2015,58,Serum,Calcium,mmol/L,2.747644934,2.2,2.6,1
01-001,1,Site 01,30,F,Other/Mixed,Placebo,5/21/2015,Y,Visit 1,1,7/17/2015,58,Serum,Chloride,mmol/L,,98,106,1
01-001,1,Site 01,30,F,Other/Mixed,Placebo,5/21/2015,Y,Visit 1,1,7/17/2015,58,Serum,Creatinine,µmol/L,31.74732591,61.9,115,1
01-001,1,Site 01,30,F,Other/Mixed,Placebo,5/21/2015,Y,Visit 1,1,7/17/2015,58,Serum,Direct Bilirubin,µmol/L,1.832345745,0,5.1,1
01-001,1,Site 01,30,F,Other/Mixed,Placebo,5/21/2015,Y,Visit 1,1,7/17/2015,58,Serum,IgE,mg/L,0.148341858,0.1,0.4,1
01-001,1,Site 01,30,F,Other/Mixed,Placebo,5/21/2015,Y,Visit 1,1,7/17/2015,58,Serum,Magnesium,mmol/L,0.915498918,0.62,0.99,1
01-001,1,Site 01,30,F,Other/Mixed,Placebo,5/21/2015,Y,Visit 1,1,7/17/2015,58,Serum,Potassium,mmol/L,4.040353217,3.5,5,1
01-001,1,Site 01,30,F,Other/Mixed,Placebo,5/21/2015,Y,Visit 1,1,7/17/2015,58,Serum,Sodium,mmol/L,144.9043817,136,145,1
01-001,1,Site 01,30,F,Other/Mixed,Placebo,5/21/2015,Y,Visit 1,1,7/17/2015,58,Serum,Total Bilirubin,µmol/L,18.1608606,5.1,20.5,1
01-001,1,Site 01,30,F,Other/Mixed,Placebo,5/21/2015,Y,Visit 1,1,7/17/2015,58,Vital Signs,Diastolic Blood Pressure,mmHg,57.38314594,60,80,1
01-001,1,Site 01,30,F,Other/Mixed,Placebo,5/21/2015,Y,Visit 1,1,7/17/2015,58,Vital Signs,Heart Rate,beats/minute,95.98738582,50,80,1
01-001,1,Site 01,30,F,Other/Mixed,Placebo,5/21/2015,Y,Visit 1,1,7/17/2015,58,Vital Signs,Respiratory Rate,breaths/minute,18.03642846,16,20,1
01-001,1,Site 01,30,F,Other/Mixed,Placebo,5/21/2015,Y,Visit 1,1,7/17/2015,58,Vital Signs,Systolic Blood Pressure,mmHg,104.916518,90,120,1
01-001,1,Site 01,30,F,Other/Mixed,Placebo,5/21/2015,Y,Visit 1,1,7/17/2015,58,Vital Signs,Temperature,°C,36.54769142,36.6,37,1
01-001,1,Site 01,30,F,Other/Mixed,Placebo,5/21/2015,Y,Visit 2,2,9/4/2015,107,Blood,Platelet count,x 109/L,210.5264056,150,350,2
01-001,1,Site 01,30,F,Other/Mixed,Placebo,5/21/2015,Y,Visit 2,2,9/4/2015,107,Blood,RBC count,x 1012 cells/L,3.897729842,4.2,5.9,2
01-001,1,Site 01,30,F,Other/Mixed,Placebo,5/21/2015,Y,Visit 2,2,9/4/2015,107,Blood,WBC count,x 109 cells/L,,4.5,11,2
01-001,1,Site 01,30,F,Other/Mixed,Placebo,5/21/2015,Y,Visit 2,2,9/4/2015,107,Serum,Albumin,g/L,50.64773761,35,55,2
01-001,1,Site 01,30,F,Other/Mixed,Placebo,5/21/2015,Y,Visit 2,2,9/4/2015,107,Serum,Alkaline phosphatase (ALP),µkat/L,0.969437333,0.5,1.5,2
01-001,1,Site 01,30,F,Other/Mixed,Placebo,5/21/2015,Y,Visit 2,2,9/4/2015,107,Serum,"Aminotransferase, alanine (ALT)",pkat/L,0.098760503,0,0.58,2
01-001,1,Site 01,30,F,Other/Mixed,Placebo,5/21/2015,Y,Visit 2,2,9/4/2015,107,Serum,"Aminotransferase, aspartate (AST)",pkat/L,0.398684801,0,0.58,2
01-001,1,Site 01,30,F,Other/Mixed,Placebo,5/21/2015,Y,Visit 2,2,9/4/2015,107,Serum,Calcium,mmol/L,2.686646997,2.2,2.6,2
01-001,1,Site 01,30,F,Other/Mixed,Placebo,5/21/2015,Y,Visit 2,2,9/4/2015,107,Serum,Chloride,mmol/L,101.7757878,98,106,2
01-001,1,Site 01,30,F,Other/Mixed,Placebo,5/21/2015,Y,Visit 2,2,9/4/2015,107,Serum,Creatinine,µmol/L,63.50987207,61.9,115,2
01-001,1,Site 01,30,F,Other/Mixed,Placebo,5/21/2015,Y,Visit 2,2,9/4/2015,107,Serum,Direct Bilirubin,µmol/L,0.117785498,0,5.1,2
01-001,1,Site 01,30,F,Other/Mixed,Placebo,5/21/2015,Y,Visit 2,2,9/4/2015,107,Serum,IgE,mg/L,0.282980834,0.1,0.4,2
01-001,1,Site 01,30,F,Other/Mixed,Placebo,5/21/2015,Y,Visit 2,2,9/4/2015,107,Serum,Magnesium,mmol/L,1.060039383,0.62,0.99,2
01-001,1,Site 01,30,F,Other/Mixed,Placebo,5/21/2015,Y,Visit 2,2,9/4/2015,107,Serum,Potassium,mmol/L,4.665935796,3.5,5,2
01-001,1,Site 01,30,F,Other/Mixed,Placebo,5/21/2015,Y,Visit 2,2,9/4/2015,107,Serum,Sodium,mmol/L,144.0389606,136,145,2
01-001,1,Site 01,30,F,Other/Mixed,Placebo,5/21/2015,Y,Visit 2,2,9/4/2015,107,Serum,Total Bilirubin,µmol/L,14.45846761,5.1,20.5,2
01-001,1,Site 01,30,F,Other/Mixed,Placebo,5/21/2015,Y,Visit 2,2,9/4/2015,107,Vital Signs,Diastolic Blood Pressure,mmHg,,60,80,2
01-001,1,Site 01,30,F,Other/Mixed,Placebo,5/21/2015,Y,Visit 2,2,9/4/2015,107,Vital Signs,Heart Rate,beats/minute,54.16292381,50,80,2
01-001,1,Site 01,30,F,Other/Mixed,Placebo,5/21/2015,Y,Visit 2,2,9/4/2015,107,Vital Signs,Respiratory Rate,breaths/minute,14.4784336,16,20,2
01-001,1,Site 01,30,F,Other/Mixed,Placebo,5/21/2015,Y,Visit 2,2,9/4/2015,107,Vital Signs,Systolic Blood Pressure,mmHg,79.42934578,90,120,2
01-001,1,Site 01,30,F,Other/Mixed,Placebo,5/21/2015,Y,Visit 2,2,9/4/2015,107,Vital Signs,Temperature,°C,36.98044305,36.6,37,2
01-001,1,Site 01,30,F,Other/Mixed,Placebo,5/21/2015,Y,Visit 3,3,10/29/2015,162,Blood,Platelet count,x 109/L,379.4227362,150,350,3
01-001,1,Site 01,30,F,Other/Mixed,Placebo,5/21/2015,Y,Visit 3,3,10/29/2015,162,Blood,RBC count,x 1012 cells/L,5.293578702,4.2,5.9,3
01-001,1,Site 01,30,F,Other/Mixed,Placebo,5/21/2015,Y,Visit 3,3,10/29/2015,162,Blood,WBC count,x 109 cells/L,1.082209078,4.5,11,3
01-001,1,Site 01,30,F,Other/Mixed,Placebo,5/21/2015,Y,Visit 3,3,10/29/2015,162,Serum,Albumin,g/L,40.93528654,35,55,3
01-001,1,Site 01,30,F,Other/Mixed,Placebo,5/21/2015,Y,Visit 3,3,10/29/2015,162,Serum,Alkaline phosphatase (ALP),µkat/L,1.037537731,0.5,1.5,3
01-001,1,Site 01,30,F,Other/Mixed,Placebo,5/21/2015,Y,Visit 3,3,10/29/2015,162,Serum,"Aminotransferase, alanine (ALT)",pkat/L,0,0,0.58,3
01-001,1,Site 01,30,F,Other/Mixed,Placebo,5/21/2015,Y,Visit 3,3,10/29/2015,162,Serum,"Aminotransferase, aspartate (AST)",pkat/L,0,0,0.58,3
01-001,1,Site 01,30,F,Other/Mixed,Placebo,5/21/2015,Y,Visit 3,3,10/29/2015,162,Serum,Calcium,mmol/L,1.996918465,2.2,2.6,3
01-001,1,Site 01,30,F,Other/Mixed,Placebo,5/21/2015,Y,Visit 3,3,10/29/2015,162,Serum,Chloride,mmol/L,102.0583608,98,106,3
01-001,1,Site 01,30,F,Other/Mixed,Placebo,5/21/2015,Y,Visit 3,3,10/29/2015,162,Serum,Creatinine,µmol/L,83.7500879,61.9,115,3
01-001,1,Site 01,30,F,Other/Mixed,Placebo,5/21/2015,Y,Visit 3,3,10/29/2015,162,Serum,Direct Bilirubin,µmol/L,1.933160061,0,5.1,3
01-001,1,Site 01,30,F,Other/Mixed,Placebo,5/21/2015,Y,Visit 3,3,10/29/2015,162,Serum,IgE,mg/L,0.267821304,0.1,0.4,3
01-001,1,Site 01,30,F,Other/Mixed,Placebo,5/21/2015,Y,Visit 3,3,10/29/2015,162,Serum,Magnesium,mmol/L,0.664110723,0.62,0.99,3
01-001,1,Site 01,30,F,Other/Mixed,Placebo,5/21/2015,Y,Visit 3,3,10/29/2015,162,Serum,Potassium,mmol/L,5.144116019,3.5,5,3
01-001,1,Site 01,30,F,Other/Mixed,Placebo,5/21/2015,Y,Visit 3,3,10/29/2015,162,Serum,Sodium,mmol/L,,136,145,3
01-001,1,Site 01,30,F,Other/Mixed,Placebo,5/21/2015,Y,Visit 3,3,10/29/2015,162,Serum,Total Bilirubin,µmol/L,22.85638898,5.1,20.5,3
01-001,1,Site 01,30,F,Other/Mixed,Placebo,5/21/2015,Y,Visit 3,3,10/29/2015,162,Vital Signs,Diastolic Blood Pressure,mmHg,,60,80,3
01-001,1,Site 01,30,F,Other/Mixed,Placebo,5/21/2015,Y,Visit 3,3,10/29/2015,162,Vital Signs,Heart Rate,beats/minute,,50,80,3
01-001,1,Site 01,30,F,Other/Mixed,Placebo,5/21/2015,Y,Visit 3,3,10/29/2015,162,Vital Signs,Respiratory Rate,breaths/minute,19.73542211,16,20,3
01-001,1,Site 01,30,F,Other/Mixed,Placebo,5/21/2015,Y,Visit 3,3,10/29/2015,162,Vital Signs,Systolic Blood Pressure,mmHg,93.5115591,90,120,3
01-001,1,Site 01,30,F,Other/Mixed,Placebo,5/21/2015,Y,Visit 3,3,10/29/2015,162,Vital Signs,Temperature,°C,36.57853605,36.6,37,3
01-001,1,Site 01,30,F,Other/Mixed,Placebo,5/21/2015,Y,Unscheduled 3.1,3.1,11/6/2015,170,Blood,Platelet count,x 109/L,266.9561971,150,350,3.1
01-001,1,Site 01,30,F,Other/Mixed,Placebo,5/21/2015,Y,Unscheduled 3.1,3.1,11/6/2015,170,Blood,RBC count,x 1012 cells/L,5.304492886,4.2,5.9,3.1
01-001,1,Site 01,30,F,Other/Mixed,Placebo,5/21/2015,Y,Unscheduled 3.1,3.1,11/6/2015,170,Blood,WBC count,x 109 cells/L,9.807584357,4.5,11,3.1
01-001,1,Site 01,30,F,Other/Mixed,Placebo,5/21/2015,Y,Unscheduled 3.1,3.1,11/6/2015,170,Serum,Albumin,g/L,49.78082971,35,55,3.1
01-001,1,Site 01,30,F,Other/Mixed,Placebo,5/21/2015,Y,Unscheduled 3.1,3.1,11/6/2015,170,Serum,Alkaline phosphatase (ALP),µkat/L,0.904530282,0.5,1.5,3.1
01-001,1,Site 01,30,F,Other/Mixed,Placebo,5/21/2015,Y,Unscheduled 3.1,3.1,11/6/2015,170,Serum,"Aminotransferase, alanine (ALT)",pkat/L,0.41927749,0,0.58,3.1
01-001,1,Site 01,30,F,Other/Mixed,Placebo,5/21/2015,Y,Unscheduled 3.1,3.1,11/6/2015,170,Serum,"Aminotransferase, aspartate (AST)",pkat/L,0.356221244,0,0.58,3.1
01-001,1,Site 01,30,F,Other/Mixed,Placebo,5/21/2015,Y,Unscheduled 3.1,3.1,11/6/2015,170,Serum,Calcium,mmol/L,2.393813054,2.2,2.6,3.1
01-001,1,Site 01,30,F,Other/Mixed,Placebo,5/21/2015,Y,Unscheduled 3.1,3.1,11/6/2015,170,Serum,Chloride,mmol/L,105.1647045,98,106,3.1
01-001,1,Site 01,30,F,Other/Mixed,Placebo,5/21/2015,Y,Unscheduled 3.1,3.1,11/6/2015,170,Serum,Creatinine,µmol/L,72.16184022,61.9,115,3.1
01-001,1,Site 01,30,F,Other/Mixed,Placebo,5/21/2015,Y,Unscheduled 3.1,3.1,11/6/2015,170,Serum,Direct Bilirubin,µmol/L,1.221575431,0,5.1,3.1
01-001,1,Site 01,30,F,Other/Mixed,Placebo,5/21/2015,Y,Unscheduled 3.1,3.1,11/6/2015,170,Serum,IgE,mg/L,0.362410727,0.1,0.4,3.1
01-001,1,Site 01,30,F,Other/Mixed,Placebo,5/21/2015,Y,Unscheduled 3.1,3.1,11/6/2015,170,Serum,Magnesium,mmol/L,0.859837302,0.62,0.99,3.1
01-001,1,Site 01,30,F,Other/Mixed,Placebo,5/21/2015,Y,Unscheduled 3.1,3.1,11/6/2015,170,Serum,Potassium,mmol/L,3.143165563,3.5,5,3.1
01-001,1,Site 01,30,F,Other/Mixed,Placebo,5/21/2015,Y,Unscheduled 3.1,3.1,11/6/2015,170,Serum,Sodium,mmol/L,140.3183742,136,145,3.1
01-001,1,Site 01,30,F,Other/Mixed,Placebo,5/21/2015,Y,Unscheduled 3.1,3.1,11/6/2015,170,Serum,Total Bilirubin,µmol/L,3.452264708,5.1,20.5,3.1
01-001,1,Site 01,30,F,Other/Mixed,Placebo,5/21/2015,Y,Unscheduled 3.1,3.1,11/6/2015,170,Vital Signs,Diastolic Blood Pressure,mmHg,89.34298163,60,80,3.1
01-001,1,Site 01,30,F,Other/Mixed,Placebo,5/21/2015,Y,Unscheduled 3.1,3.1,11/6/2015,170,Vital Signs,Heart Rate,beats/minute,60.77850438,50,80,3.1
01-001,1,Site 01,30,F,Other/Mixed,Placebo,5/21/2015,Y,Unscheduled 3.1,3.1,11/6/2015,170,Vital Signs,Respiratory Rate,breaths/minute,19.39243132,16,20,3.1
01-001,1,Site 01,30,F,Other/Mixed,Placebo,5/21/2015,Y,Unscheduled 3.1,3.1,11/6/2015,170,Vital Signs,Systolic Blood Pressure,mmHg,131.07337,90,120,3.1
01-001,1,Site 01,30,F,Other/Mixed,Placebo,5/21/2015,Y,Unscheduled 3.1,3.1,11/6/2015,170,Vital Signs,Temperature,°C,36.37286121,36.6,37,3.1
01-001,1,Site 01,30,F,Other/Mixed,Placebo,5/21/2015,Y,Visit 4,4,12/24/2015,218,Blood,Platelet count,x 109/L,411.5595407,150,350,4
01-001,1,Site 01,30,F,Other/Mixed,Placebo,5/21/2015,Y,Visit 4,4,12/24/2015,218,Blood,RBC count,x 1012 cells/L,3.765756813,4.2,5.9,4
01-001,1,Site 01,30,F,Other/Mixed,Placebo,5/21/2015,Y,Visit 4,4,12/24/2015,218,Blood,WBC count,x 109 cells/L,11.81729855,4.5,11,4
01-001,1,Site 01,30,F,Other/Mixed,Placebo,5/21/2015,Y,Visit 4,4,12/24/2015,218,Serum,Albumin,g/L,42.92314323,35,55,4
01-001,1,Site 01,30,F,Other/Mixed,Placebo,5/21/2015,Y,Visit 4,4,12/24/2015,218,Serum,Alkaline phosphatase (ALP),µkat/L,1.27026249,0.5,1.5,4
01-001,1,Site 01,30,F,Other/Mixed,Placebo,5/21/2015,Y,Visit 4,4,12/24/2015,218,Serum,"Aminotransferase, alanine (ALT)",pkat/L,0.524351713,0,0.58,4
01-001,1,Site 01,30,F,Other/Mixed,Placebo,5/21/2015,Y,Visit 4,4,12/24/2015,218,Serum,"Aminotransferase, aspartate (AST)",pkat/L,0.357285728,0,0.58,4
01-001,1,Site 01,30,F,Other/Mixed,Placebo,5/21/2015,Y,Visit 4,4,12/24/2015,218,Serum,Calcium,mmol/L,,2.2,2.6,4
01-001,1,Site 01,30,F,Other/Mixed,Placebo,5/21/2015,Y,Visit 4,4,12/24/2015,218,Serum,Chloride,mmol/L,102.0704548,98,106,4
01-001,1,Site 01,30,F,Other/Mixed,Placebo,5/21/2015,Y,Visit 4,4,12/24/2015,218,Serum,Creatinine,µmol/L,68.91512161,61.9,115,4
01-001,1,Site 01,30,F,Other/Mixed,Placebo,5/21/2015,Y,Visit 4,4,12/24/2015,218,Serum,Direct Bilirubin,µmol/L,4.9034616,0,5.1,4
01-001,1,Site 01,30,F,Other/Mixed,Placebo,5/21/2015,Y,Visit 4,4,12/24/2015,218,Serum,IgE,mg/L,0.483463218,0.1,0.4,4
01-001,1,Site 01,30,F,Other/Mixed,Placebo,5/21/2015,Y,Visit 4,4,12/24/2015,218,Serum,Magnesium,mmol/L,0.580954072,0.62,0.99,4
01-001,1,Site 01,30,F,Other/Mixed,Placebo,5/21/2015,Y,Visit 4,4,12/24/2015,218,Serum,Potassium,mmol/L,4.800610096,3.5,5,4
01-001,1,Site 01,30,F,Other/Mixed,Placebo,5/21/2015,Y,Visit 4,4,12/24/2015,218,Serum,Sodium,mmol/L,142.8403149,136,145,4
01-001,1,Site 01,30,F,Other/Mixed,Placebo,5/21/2015,Y,Visit 4,4,12/24/2015,218,Serum,Total Bilirubin,µmol/L,,5.1,20.5,4
01-001,1,Site 01,30,F,Other/Mixed,Placebo,5/21/2015,Y,Visit 4,4,12/24/2015,218,Vital Signs,Diastolic Blood Pressure,mmHg,67.20470956,60,80,4
01-001,1,Site 01,30,F,Other/Mixed,Placebo,5/21/2015,Y,Visit 4,4,12/24/2015,218,Vital Signs,Heart Rate,beats/minute,54.83418577,50,80,4
01-001,1,Site 01,30,F,Other/Mixed,Placebo,5/21/2015,Y,Visit 4,4,12/24/2015,218,Vital Signs,Respiratory Rate,breaths/minute,19.19458289,16,20,4
01-001,1,Site 01,30,F,Other/Mixed,Placebo,5/21/2015,Y,Visit 4,4,12/24/2015,218,Vital Signs,Systolic Blood Pressure,mmHg,,90,120,4
01-001,1,Site 01,30,F,Other/Mixed,Placebo,5/21/2015,Y,Visit 4,4,12/24/2015,218,Vital Signs,Temperature,°C,36.67614621,36.6,37,4
01-001,1,Site 01,30,F,Other/Mixed,Placebo,5/21/2015,Y,Visit 5,5,2/28/2016,284,Blood,Platelet count,x 109/L,103.8999059,150,350,5
01-001,1,Site 01,30,F,Other/Mixed,Placebo,5/21/2015,Y,Visit 5,5,2/28/2016,284,Blood,RBC count,x 1012 cells/L,5.287522669,4.2,5.9,5
01-001,1,Site 01,30,F,Other/Mixed,Placebo,5/21/2015,Y,Visit 5,5,2/28/2016,284,Blood,WBC count,x 109 cells/L,,4.5,11,5
01-001,1,Site 01,30,F,Other/Mixed,Placebo,5/21/2015,Y,Visit 5,5,2/28/2016,284,Serum,Albumin,g/L,40.4973597,35,55,5
01-001,1,Site 01,30,F,Other/Mixed,Placebo,5/21/2015,Y,Visit 5,5,2/28/2016,284,Serum,Alkaline phosphatase (ALP),µkat/L,1.46652827,0.5,1.5,5
01-001,1,Site 01,30,F,Other/Mixed,Placebo,5/21/2015,Y,Visit 5,5,2/28/2016,284,Serum,"Aminotransferase, alanine (ALT)",pkat/L,0.556524117,0,0.58,5
01-001,1,Site 01,30,F,Other/Mixed,Placebo,5/21/2015,Y,Visit 5,5,2/28/2016,284,Serum,"Aminotransferase, aspartate (AST)",pkat/L,0,0,0.58,5
01-001,1,Site 01,30,F,Other/Mixed,Placebo,5/21/2015,Y,Visit 5,5,2/28/2016,284,Serum,Calcium,mmol/L,2.376994207,2.2,2.6,5
01-001,1,Site 01,30,F,Other/Mixed,Placebo,5/21/2015,Y,Visit 5,5,2/28/2016,284,Serum,Chloride,mmol/L,92.71891845,98,106,5
01-001,1,Site 01,30,F,Other/Mixed,Placebo,5/21/2015,Y,Visit 5,5,2/28/2016,284,Serum,Creatinine,µmol/L,67.03902657,61.9,115,5
01-001,1,Site 01,30,F,Other/Mixed,Placebo,5/21/2015,Y,Visit 5,5,2/28/2016,284,Serum,Direct Bilirubin,µmol/L,3.169787721,0,5.1,5
01-001,1,Site 01,30,F,Other/Mixed,Placebo,5/21/2015,Y,Visit 5,5,2/28/2016,284,Serum,IgE,mg/L,0.338095648,0.1,0.4,5
01-001,1,Site 01,30,F,Other/Mixed,Placebo,5/21/2015,Y,Visit 5,5,2/28/2016,284,Serum,Magnesium,mmol/L,,0.62,0.99,5
01-001,1,Site 01,30,F,Other/Mixed,Placebo,5/21/2015,Y,Visit 5,5,2/28/2016,284,Serum,Potassium,mmol/L,,3.5,5,5
01-001,1,Site 01,30,F,Other/Mixed,Placebo,5/21/2015,Y,Visit 5,5,2/28/2016,284,Serum,Sodium,mmol/L,139.0646781,136,145,5
01-001,1,Site 01,30,F,Other/Mixed,Placebo,5/21/2015,Y,Visit 5,5,2/28/2016,284,Serum,Total Bilirubin,µmol/L,28.64346835,5.1,20.5,5
01-001,1,Site 01,30,F,Other/Mixed,Placebo,5/21/2015,Y,Visit 5,5,2/28/2016,284,Vital Signs,Diastolic Blood Pressure,mmHg,69.38874666,60,80,5
01-001,1,Site 01,30,F,Other/Mixed,Placebo,5/21/2015,Y,Visit 5,5,2/28/2016,284,Vital Signs,Heart Rate,beats/minute,79.68127242,50,80,5
01-001,1,Site 01,30,F,Other/Mixed,Placebo,5/21/2015,Y,Visit 5,5,2/28/2016,284,Vital Signs,Respiratory Rate,breaths/minute,19.25219675,16,20,5
01-001,1,Site 01,30,F,Other/Mixed,Placebo,5/21/2015,Y,Visit 5,5,2/28/2016,284,Vital Signs,Systolic Blood Pressure,mmHg,113.4716064,90,120,5
01-001,1,Site 01,30,F,Other/Mixed,Placebo,5/21/2015,Y,Visit 5,5,2/28/2016,284,Vital Signs,Temperature,°C,36.66811069,36.6,37,5
01-001,1,Site 01,30,F,Other/Mixed,Placebo,5/21/2015,Y,Visit 6,6,4/20/2016,336,Blood,Platelet count,x 109/L,303.0385237,150,350,6
01-001,1,Site 01,30,F,Other/Mixed,Placebo,5/21/2015,Y,Visit 6,6,4/20/2016,336,Blood,RBC count,x 1012 cells/L,,4.2,5.9,6
01-001,1,Site 01,30,F,Other/Mixed,Placebo,5/21/2015,Y,Visit 6,6,4/20/2016,336,Blood,WBC count,x 109 cells/L,,4.5,11,6
01-001,1,Site 01,30,F,Other/Mixed,Placebo,5/21/2015,Y,Visit 6,6,4/20/2016,336,Serum,Albumin,g/L,30.49041821,35,55,6
01-001,1,Site 01,30,F,Other/Mixed,Placebo,5/21/2015,Y,Visit 6,6,4/20/2016,336,Serum,Alkaline phosphatase (ALP),µkat/L,1.297404443,0.5,1.5,6
01-001,1,Site 01,30,F,Other/Mixed,Placebo,5/21/2015,Y,Visit 6,6,4/20/2016,336,Serum,"Aminotransferase, alanine (ALT)",pkat/L,,0,0.58,6
01-001,1,Site 01,30,F,Other/Mixed,Placebo,5/21/2015,Y,Visit 6,6,4/20/2016,336,Serum,"Aminotransferase, aspartate (AST)",pkat/L,0.439752284,0,0.58,6
01-001,1,Site 01,30,F,Other/Mixed,Placebo,5/21/2015,Y,Visit 6,6,4/20/2016,336,Serum,Calcium,mmol/L,,2.2,2.6,6
01-001,1,Site 01,30,F,Other/Mixed,Placebo,5/21/2015,Y,Visit 6,6,4/20/2016,336,Serum,Chloride,mmol/L,103.2575157,98,106,6
01-001,1,Site 01,30,F,Other/Mixed,Placebo,5/21/2015,Y,Visit 6,6,4/20/2016,336,Serum,Creatinine,µmol/L,58.2709759,61.9,115,6
01-001,1,Site 01,30,F,Other/Mixed,Placebo,5/21/2015,Y,Visit 6,6,4/20/2016,336,Serum,Direct Bilirubin,µmol/L,0,0,5.1,6
01-001,1,Site 01,30,F,Other/Mixed,Placebo,5/21/2015,Y,Visit 6,6,4/20/2016,336,Serum,IgE,mg/L,0.095628999,0.1,0.4,6
01-001,1,Site 01,30,F,Other/Mixed,Placebo,5/21/2015,Y,Visit 6,6,4/20/2016,336,Serum,Magnesium,mmol/L,,0.62,0.99,6
01-001,1,Site 01,30,F,Other/Mixed,Placebo,5/21/2015,Y,Visit 6,6,4/20/2016,336,Serum,Potassium,mmol/L,5.077054587,3.5,5,6
01-001,1,Site 01,30,F,Other/Mixed,Placebo,5/21/2015,Y,Visit 6,6,4/20/2016,336,Serum,Sodium,mmol/L,142.141508,136,145,6
01-001,1,Site 01,30,F,Other/Mixed,Placebo,5/21/2015,Y,Visit 6,6,4/20/2016,336,Serum,Total Bilirubin,µmol/L,17.96527815,5.1,20.5,6
01-001,1,Site 01,30,F,Other/Mixed,Placebo,5/21/2015,Y,Visit 6,6,4/20/2016,336,Vital Signs,Diastolic Blood Pressure,mmHg,84.33234986,60,80,6
01-001,1,Site 01,30,F,Other/Mixed,Placebo,5/21/2015,Y,Visit 6,6,4/20/2016,336,Vital Signs,Heart Rate,beats/minute,70.62162764,50,80,6
01-001,1,Site 01,30,F,Other/Mixed,Placebo,5/21/2015,Y,Visit 6,6,4/20/2016,336,Vital Signs,Respiratory Rate,breaths/minute,16.09238078,16,20,6
01-001,1,Site 01,30,F,Other/Mixed,Placebo,5/21/2015,Y,Visit 6,6,4/20/2016,336,Vital Signs,Systolic Blood Pressure,mmHg,108.2307811,90,120,6
01-001,1,Site 01,30,F,Other/Mixed,Placebo,5/21/2015,Y,Visit 6,6,4/20/2016,336,Vital Signs,Temperature,°C,36.78878939,36.6,37,6
01-001,1,Site 01,30,F,Other/Mixed,Placebo,5/21/2015,Y,End of Study,7,5/9/2016,355,Blood,Platelet count,x 109/L,198.8196848,150,350,7
01-001,1,Site 01,30,F,Other/Mixed,Placebo,5/21/2015,Y,End of Study,7,5/9/2016,355,Blood,RBC count,x 1012 cells/L,4.754143408,4.2,5.9,7
01-001,1,Site 01,30,F,Other/Mixed,Placebo,5/21/2015,Y,End of Study,7,5/9/2016,355,Blood,WBC count,x 109 cells/L,12.56717447,4.5,11,7
01-001,1,Site 01,30,F,Other/Mixed,Placebo,5/21/2015,Y,End of Study,7,5/9/2016,355,Serum,Albumin,g/L,42.94369326,35,55,7
01-001,1,Site 01,30,F,Other/Mixed,Placebo,5/21/2015,Y,End of Study,7,5/9/2016,355,Serum,Alkaline phosphatase (ALP),µkat/L,0.855854314,0.5,1.5,7
01-001,1,Site 01,30,F,Other/Mixed,Placebo,5/21/2015,Y,End of Study,7,5/9/2016,355,Serum,"Aminotransferase, alanine (ALT)",pkat/L,,0,0.58,7
01-001,1,Site 01,30,F,Other/Mixed,Placebo,5/21/2015,Y,End of Study,7,5/9/2016,355,Serum,"Aminotransferase, aspartate (AST)",pkat/L,0.549106277,0,0.58,7
01-001,1,Site 01,30,F,Other/Mixed,Placebo,5/21/2015,Y,End of Study,7,5/9/2016,355,Serum,Calcium,mmol/L,2.342411428,2.2,2.6,7
01-001,1,Site 01,30,F,Other/Mixed,Placebo,5/21/2015,Y,End of Study,7,5/9/2016,355,Serum,Chloride,mmol/L,,98,106,7
01-001,1,Site 01,30,F,Other/Mixed,Placebo,5/21/2015,Y,End of Study,7,5/9/2016,355,Serum,Creatinine,µmol/L,123.0419718,61.9,115,7
01-001,1,Site 01,30,F,Other/Mixed,Placebo,5/21/2015,Y,End of Study,7,5/9/2016,355,Serum,Direct Bilirubin,µmol/L,,0,5.1,7
01-001,1,Site 01,30,F,Other/Mixed,Placebo,5/21/2015,Y,End of Study,7,5/9/2016,355,Serum,IgE,mg/L,0.182903227,0.1,0.4,7
01-001,1,Site 01,30,F,Other/Mixed,Placebo,5/21/2015,Y,End of Study,7,5/9/2016,355,Serum,Magnesium,mmol/L,0.843764091,0.62,0.99,7
01-001,1,Site 01,30,F,Other/Mixed,Placebo,5/21/2015,Y,End of Study,7,5/9/2016,355,Serum,Potassium,mmol/L,3.570783485,3.5,5,7
01-001,1,Site 01,30,F,Other/Mixed,Placebo,5/21/2015,Y,End of Study,7,5/9/2016,355,Serum,Sodium,mmol/L,134.5794673,136,145,7
01-001,1,Site 01,30,F,Other/Mixed,Placebo,5/21/2015,Y,End of Study,7,5/9/2016,355,Serum,Total Bilirubin,µmol/L,,5.1,20.5,7
01-001,1,Site 01,30,F,Other/Mixed,Placebo,5/21/2015,Y,End of Study,7,5/9/2016,355,Vital Signs,Diastolic Blood Pressure,mmHg,66.05264056,60,80,7
01-001,1,Site 01,30,F,Other/Mixed,Placebo,5/21/2015,Y,End of Study,7,5/9/2016,355,Vital Signs,Heart Rate,beats/minute,50.90953224,50,80,7
01-001,1,Site 01,30,F,Other/Mixed,Placebo,5/21/2015,Y,End of Study,7,5/9/2016,355,Vital Signs,Respiratory Rate,breaths/minute,18.43974446,16,20,7
01-001,1,Site 01,30,F,Other/Mixed,Placebo,5/21/2015,Y,End of Study,7,5/9/2016,355,Vital Signs,Systolic Blood Pressure,mmHg,125.6788689,90,120,7
01-001,1,Site 01,30,F,Other/Mixed,Placebo,5/21/2015,Y,End of Study,7,5/9/2016,355,Vital Signs,Temperature,°C,36.91091621,36.6,37,7
01-002,1,Site 01,24,F,Black,Treatment A,5/30/2015,Y,Screening,0,5/30/2015,1,Blood,Platelet count,x 109/L,203.2169961,150,350,0
01-002,1,Site 01,24,F,Black,Treatment A,5/30/2015,Y,Screening,0,5/30/2015,1,Blood,RBC count,x 1012 cells/L,4.593522352,4.2,5.9,0
01-002,1,Site 01,24,F,Black,Treatment A,5/30/2015,Y,Screening,0,5/30/2015,1,Blood,WBC count,x 109 cells/L,4.112689901,4.5,11,0
01-002,1,Site 01,24,F,Black,Treatment A,5/30/2015,Y,Screening,0,5/30/2015,1,Serum,Albumin,g/L,35.91238702,35,55,0
01-002,1,Site 01,24,F,Black,Treatment A,5/30/2015,Y,Screening,0,5/30/2015,1,Serum,Alkaline phosphatase (ALP),µkat/L,,0.5,1.5,0
01-002,1,Site 01,24,F,Black,Treatment A,5/30/2015,Y,Screening,0,5/30/2015,1,Serum,"Aminotransferase, alanine (ALT)",pkat/L,0.230898958,0,0.58,0
01-002,1,Site 01,24,F,Black,Treatment A,5/30/2015,Y,Screening,0,5/30/2015,1,Serum,"Aminotransferase, aspartate (AST)",pkat/L,0,0,0.58,0
01-002,1,Site 01,24,F,Black,Treatment A,5/30/2015,Y,Screening,0,5/30/2015,1,Serum,Calcium,mmol/L,2.221158684,2.2,2.6,0
01-002,1,Site 01,24,F,Black,Treatment A,5/30/2015,Y,Screening,0,5/30/2015,1,Serum,Chloride,mmol/L,,98,106,0
01-002,1,Site 01,24,F,Black,Treatment A,5/30/2015,Y,Screening,0,5/30/2015,1,Serum,Creatinine,µmol/L,62.35209447,61.9,115,0
01-002,1,Site 01,24,F,Black,Treatment A,5/30/2015,Y,Screening,0,5/30/2015,1,Serum,Direct Bilirubin,µmol/L,1.191625755,0,5.1,0
01-002,1,Site 01,24,F,Black,Treatment A,5/30/2015,Y,Screening,0,5/30/2015,1,Serum,IgE,mg/L,0.273294162,0.1,0.4,0
01-002,1,Site 01,24,F,Black,Treatment A,5/30/2015,Y,Screening,0,5/30/2015,1,Serum,Magnesium,mmol/L,0.479238168,0.62,0.99,0
01-002,1,Site 01,24,F,Black,Treatment A,5/30/2015,Y,Screening,0,5/30/2015,1,Serum,Potassium,mmol/L,3.868613497,3.5,5,0
01-002,1,Site 01,24,F,Black,Treatment A,5/30/2015,Y,Screening,0,5/30/2015,1,Serum,Sodium,mmol/L,149.5450605,136,145,0
01-002,1,Site 01,24,F,Black,Treatment A,5/30/2015,Y,Screening,0,5/30/2015,1,Serum,Total Bilirubin,µmol/L,29.5090659,5.1,20.5,0
01-002,1,Site 01,24,F,Black,Treatment A,5/30/2015,Y,Screening,0,5/30/2015,1,Vital Signs,Diastolic Blood Pressure,mmHg,65.93528654,60,80,0
01-002,1,Site 01,24,F,Black,Treatment A,5/30/2015,Y,Screening,0,5/30/2015,1,Vital Signs,Heart Rate,beats/minute,44.66582074,50,80,0
01-002,1,Site 01,24,F,Black,Treatment A,5/30/2015,Y,Screening,0,5/30/2015,1,Vital Signs,Respiratory Rate,breaths/minute,19.57287139,16,20,0
01-002,1,Site 01,24,F,Black,Treatment A,5/30/2015,Y,Screening,0,5/30/2015,1,Vital Signs,Systolic Blood Pressure,mmHg,,90,120,0
01-002,1,Site 01,24,F,Black,Treatment A,5/30/2015,Y,Screening,0,5/30/2015,1,Vital Signs,Temperature,°C,36.81501509,36.6,37,0
01-002,1,Site 01,24,F,Black,Treatment A,5/30/2015,Y,Visit 1,1,7/29/2015,61,Blood,Platelet count,x 109/L,463.2431392,150,350,1
01-002,1,Site 01,24,F,Black,Treatment A,5/30/2015,Y,Visit 1,1,7/29/2015,61,Blood,RBC count,x 1012 cells/L,6.23010335,4.2,5.9,1
01-002,1,Site 01,24,F,Black,Treatment A,5/30/2015,Y,Visit 1,1,7/29/2015,61,Blood,WBC count,x 109 cells/L,2.626978646,4.5,11,1
01-002,1,Site 01,24,F,Black,Treatment A,5/30/2015,Y,Visit 1,1,7/29/2015,61,Serum,Albumin,g/L,59.23364152,35,55,1
01-002,1,Site 01,24,F,Black,Treatment A,5/30/2015,Y,Visit 1,1,7/29/2015,61,Serum,Alkaline phosphatase (ALP),µkat/L,0.683324276,0.5,1.5,1
01-002,1,Site 01,24,F,Black,Treatment A,5/30/2015,Y,Visit 1,1,7/29/2015,61,Serum,"Aminotransferase, alanine (ALT)",pkat/L,0.615933487,0,0.58,1
01-002,1,Site 01,24,F,Black,Treatment A,5/30/2015,Y,Visit 1,1,7/29/2015,61,Serum,"Aminotransferase, aspartate (AST)",pkat/L,0.376151129,0,0.58,1
01-002,1,Site 01,24,F,Black,Treatment A,5/30/2015,Y,Visit 1,1,7/29/2015,61,Serum,Calcium,mmol/L,2.280719946,2.2,2.6,1
01-002,1,Site 01,24,F,Black,Treatment A,5/30/2015,Y,Visit 1,1,7/29/2015,61,Serum,Chloride,mmol/L,,98,106,1
01-002,1,Site 01,24,F,Black,Treatment A,5/30/2015,Y,Visit 1,1,7/29/2015,61,Serum,Creatinine,µmol/L,122.1491522,61.9,115,1
01-002,1,Site 01,24,F,Black,Treatment A,5/30/2015,Y,Visit 1,1,7/29/2015,61,Serum,Direct Bilirubin,µmol/L,3.013217863,0,5.1,1
01-002,1,Site 01,24,F,Black,Treatment A,5/30/2015,Y,Visit 1,1,7/29/2015,61,Serum,IgE,mg/L,0.284745604,0.1,0.4,1
01-002,1,Site 01,24,F,Black,Treatment A,5/30/2015,Y,Visit 1,1,7/29/2015,61,Serum,Magnesium,mmol/L,0.690481055,0.62,0.99,1
01-002,1,Site 01,24,F,Black,Treatment A,5/30/2015,Y,Visit 1,1,7/29/2015,61,Serum,Potassium,mmol/L,4.681202152,3.5,5,1
01-002,1,Site 01,24,F,Black,Treatment A,5/30/2015,Y,Visit 1,1,7/29/2015,61,Serum,Sodium,mmol/L,138.8703424,136,145,1
01-002,1,Site 01,24,F,Black,Treatment A,5/30/2015,Y,Visit 1,1,7/29/2015,61,Serum,Total Bilirubin,µmol/L,18.444059,5.1,20.5,1
01-002,1,Site 01,24,F,Black,Treatment A,5/30/2015,Y,Visit 1,1,7/29/2015,61,Vital Signs,Diastolic Blood Pressure,mmHg,83.06024543,60,80,1
01-002,1,Site 01,24,F,Black,Treatment A,5/30/2015,Y,Visit 1,1,7/29/2015,61,Vital Signs,Heart Rate,beats/minute,43.27997687,50,80,1
01-002,1,Site 01,24,F,Black,Treatment A,5/30/2015,Y,Visit 1,1,7/29/2015,61,Vital Signs,Respiratory Rate,breaths/minute,14.49816927,16,20,1
01-002,1,Site 01,24,F,Black,Treatment A,5/30/2015,Y,Visit 1,1,7/29/2015,61,Vital Signs,Systolic Blood Pressure,mmHg,101.3715298,90,120,1
01-002,1,Site 01,24,F,Black,Treatment A,5/30/2015,Y,Visit 1,1,7/29/2015,61,Vital Signs,Temperature,°C,36.39691847,36.6,37,1
01-002,1,Site 01,24,F,Black,Treatment A,5/30/2015,Y,Unscheduled 1.1,1.1,8/6/2015,69,Blood,Platelet count,x 109/L,131.3176511,150,350,1.1
01-002,1,Site 01,24,F,Black,Treatment A,5/30/2015,Y,Unscheduled 1.1,1.1,8/6/2015,69,Blood,RBC count,x 1012 cells/L,4.878194242,4.2,5.9,1.1
01-002,1,Site 01,24,F,Black,Treatment A,5/30/2015,Y,Unscheduled 1.1,1.1,8/6/2015,69,Blood,WBC count,x 109 cells/L,8.67922303,4.5,11,1.1
01-002,1,Site 01,24,F,Black,Treatment A,5/30/2015,Y,Unscheduled 1.1,1.1,8/6/2015,69,Serum,Albumin,g/L,32.1827239,35,55,1.1
01-002,1,Site 01,24,F,Black,Treatment A,5/30/2015,Y,Unscheduled 1.1,1.1,8/6/2015,69,Serum,Alkaline phosphatase (ALP),µkat/L,0.301711247,0.5,1.5,1.1
01-002,1,Site 01,24,F,Black,Treatment A,5/30/2015,Y,Unscheduled 1.1,1.1,8/6/2015,69,Serum,"Aminotransferase, alanine (ALT)",pkat/L,0.041009324,0,0.58,1.1
01-002,1,Site 01,24,F,Black,Treatment A,5/30/2015,Y,Unscheduled 1.1,1.1,8/6/2015,69,Serum,"Aminotransferase, aspartate (AST)",pkat/L,0.173110073,0,0.58,1.1
01-002,1,Site 01,24,F,Black,Treatment A,5/30/2015,Y,Unscheduled 1.1,1.1,8/6/2015,69,Serum,Calcium,mmol/L,2.604485222,2.2,2.6,1.1
01-002,1,Site 01,24,F,Black,Treatment A,5/30/2015,Y,Unscheduled 1.1,1.1,8/6/2015,69,Serum,Chloride,mmol/L,98.70812661,98,106,1.1
01-002,1,Site 01,24,F,Black,Treatment A,5/30/2015,Y,Unscheduled 1.1,1.1,8/6/2015,69,Serum,Creatinine,µmol/L,47.29385705,61.9,115,1.1
01-002,1,Site 01,24,F,Black,Treatment A,5/30/2015,Y,Unscheduled 1.1,1.1,8/6/2015,69,Serum,Direct Bilirubin,µmol/L,0.514301627,0,5.1,1.1
01-002,1,Site 01,24,F,Black,Treatment A,5/30/2015,Y,Unscheduled 1.1,1.1,8/6/2015,69,Serum,IgE,mg/L,0.270526085,0.1,0.4,1.1
01-002,1,Site 01,24,F,Black,Treatment A,5/30/2015,Y,Unscheduled 1.1,1.1,8/6/2015,69,Serum,Magnesium,mmol/L,0.628459221,0.62,0.99,1.1
01-002,1,Site 01,24,F,Black,Treatment A,5/30/2015,Y,Unscheduled 1.1,1.1,8/6/2015,69,Serum,Potassium,mmol/L,4.718845144,3.5,5,1.1
01-002,1,Site 01,24,F,Black,Treatment A,5/30/2015,Y,Unscheduled 1.1,1.1,8/6/2015,69,Serum,Sodium,mmol/L,137.5719069,136,145,1.1
01-002,1,Site 01,24,F,Black,Treatment A,5/30/2015,Y,Unscheduled 1.1,1.1,8/6/2015,69,Serum,Total Bilirubin,µmol/L,2.258589413,5.1,20.5,1.1
01-002,1,Site 01,24,F,Black,Treatment A,5/30/2015,Y,Unscheduled 1.1,1.1,8/6/2015,69,Vital Signs,Diastolic Blood Pressure,mmHg,62.38436343,60,80,1.1
01-002,1,Site 01,24,F,Black,Treatment A,5/30/2015,Y,Unscheduled 1.1,1.1,8/6/2015,69,Vital Signs,Heart Rate,beats/minute,65.21885282,50,80,1.1
01-002,1,Site 01,24,F,Black,Treatment A,5/30/2015,Y,Unscheduled 1.1,1.1,8/6/2015,69,Vital Signs,Respiratory Rate,breaths/minute,17.64595766,16,20,1.1
01-002,1,Site 01,24,F,Black,Treatment A,5/30/2015,Y,Unscheduled 1.1,1.1,8/6/2015,69,Vital Signs,Systolic Blood Pressure,mmHg,106.7821304,90,120,1.1
01-002,1,Site 01,24,F,Black,Treatment A,5/30/2015,Y,Unscheduled 1.1,1.1,8/6/2015,69,Vital Signs,Temperature,°C,37.05884547,36.6,37,1.1
01-002,1,Site 01,24,F,Black,Treatment A,5/30/2015,Y,Visit 2,2,9/17/2015,111,Blood,Platelet count,x 109/L,215.8099351,150,350,2
01-002,1,Site 01,24,F,Black,Treatment A,5/30/2015,Y,Visit 2,2,9/17/2015,111,Blood,RBC count,x 1012 cells/L,5.716753188,4.2,5.9,2
01-002,1,Site 01,24,F,Black,Treatment A,5/30/2015,Y,Visit 2,2,9/17/2015,111,Blood,WBC count,x 109 cells/L,,4.5,11,2
01-002,1,Site 01,24,F,Black,Treatment A,5/30/2015,Y,Visit 2,2,9/17/2015,111,Serum,Albumin,g/L,51.28833074,35,55,2
01-002,1,Site 01,24,F,Black,Treatment A,5/30/2015,Y,Visit 2,2,9/17/2015,111,Serum,Alkaline phosphatase (ALP),µkat/L,1.938188364,0.5,1.5,2
01-002,1,Site 01,24,F,Black,Treatment A,5/30/2015,Y,Visit 2,2,9/17/2015,111,Serum,"Aminotransferase, alanine (ALT)",pkat/L,0.288614746,0,0.58,2
01-002,1,Site 01,24,F,Black,Treatment A,5/30/2015,Y,Visit 2,2,9/17/2015,111,Serum,"Aminotransferase, aspartate (AST)",pkat/L,0.44490206,0,0.58,2
01-002,1,Site 01,24,F,Black,Treatment A,5/30/2015,Y,Visit 2,2,9/17/2015,111,Serum,Calcium,mmol/L,2.395557456,2.2,2.6,2
01-002,1,Site 01,24,F,Black,Treatment A,5/30/2015,Y,Visit 2,2,9/17/2015,111,Serum,Chloride,mmol/L,97.33033301,98,106,2
01-002,1,Site 01,24,F,Black,Treatment A,5/30/2015,Y,Visit 2,2,9/17/2015,111,Serum,Creatinine,µmol/L,68.5537475,61.9,115,2
01-002,1,Site 01,24,F,Black,Treatment A,5/30/2015,Y,Visit 2,2,9/17/2015,111,Serum,Direct Bilirubin,µmol/L,4.231329985,0,5.1,2
01-002,1,Site 01,24,F,Black,Treatment A,5/30/2015,Y,Visit 2,2,9/17/2015,111,Serum,IgE,mg/L,0.308732408,0.1,0.4,2
01-002,1,Site 01,24,F,Black,Treatment A,5/30/2015,Y,Visit 2,2,9/17/2015,111,Serum,Magnesium,mmol/L,0.898540764,0.62,0.99,2
01-002,1,Site 01,24,F,Black,Treatment A,5/30/2015,Y,Visit 2,2,9/17/2015,111,Serum,Potassium,mmol/L,5.26015012,3.5,5,2
01-002,1,Site 01,24,F,Black,Treatment A,5/30/2015,Y,Visit 2,2,9/17/2015,111,Serum,Sodium,mmol/L,139.2934757,136,145,2
01-002,1,Site 01,24,F,Black,Treatment A,5/30/2015,Y,Visit 2,2,9/17/2015,111,Serum,Total Bilirubin,µmol/L,7.603867372,5.1,20.5,2
01-002,1,Site 01,24,F,Black,Treatment A,5/30/2015,Y,Visit 2,2,9/17/2015,111,Vital Signs,Diastolic Blood Pressure,mmHg,,60,80,2
01-002,1,Site 01,24,F,Black,Treatment A,5/30/2015,Y,Visit 2,2,9/17/2015,111,Vital Signs,Heart Rate,beats/minute,82.88232038,50,80,2
01-002,1,Site 01,24,F,Black,Treatment A,5/30/2015,Y,Visit 2,2,9/17/2015,111,Vital Signs,Respiratory Rate,breaths/minute,18.57312636,16,20,2
01-002,1,Site 01,24,F,Black,Treatment A,5/30/2015,Y,Visit 2,2,9/17/2015,111,Vital Signs,Systolic Blood Pressure,mmHg,65.65899428,90,120,2
01-002,1,Site 01,24,F,Black,Treatment A,5/30/2015,Y,Visit 2,2,9/17/2015,111,Vital Signs,Temperature,°C,36.89561659,36.6,37,2
01-002,1,Site 01,24,F,Black,Treatment A,5/30/2015,Y,Visit 3,3,11/15/2015,170,Blood,Platelet count,x 109/L,241.0413431,150,350,3
01-002,1,Site 01,24,F,Black,Treatment A,5/30/2015,Y,Visit 3,3,11/15/2015,170,Blood,RBC count,x 1012 cells/L,4.617160817,4.2,5.9,3
01-002,1,Site 01,24,F,Black,Treatment A,5/30/2015,Y,Visit 3,3,11/15/2015,170,Blood,WBC count,x 109 cells/L,9.903693524,4.5,11,3
01-002,1,Site 01,24,F,Black,Treatment A,5/30/2015,Y,Visit 3,3,11/15/2015,170,Serum,Albumin,g/L,33.484548,35,55,3
01-002,1,Site 01,24,F,Black,Treatment A,5/30/2015,Y,Visit 3,3,11/15/2015,170,Serum,Alkaline phosphatase (ALP),µkat/L,1.305793668,0.5,1.5,3
01-002,1,Site 01,24,F,Black,Treatment A,5/30/2015,Y,Visit 3,3,11/15/2015,170,Serum,"Aminotransferase, alanine (ALT)",pkat/L,0.16388016,0,0.58,3
01-002,1,Site 01,24,F,Black,Treatment A,5/30/2015,Y,Visit 3,3,11/15/2015,170,Serum,"Aminotransferase, aspartate (AST)",pkat/L,0.665111793,0,0.58,3
01-002,1,Site 01,24,F,Black,Treatment A,5/30/2015,Y,Visit 3,3,11/15/2015,170,Serum,Calcium,mmol/L,2.508481634,2.2,2.6,3
01-002,1,Site 01,24,F,Black,Treatment A,5/30/2015,Y,Visit 3,3,11/15/2015,170,Serum,Chloride,mmol/L,98.83722699,98,106,3
01-002,1,Site 01,24,F,Black,Treatment A,5/30/2015,Y,Visit 3,3,11/15/2015,170,Serum,Creatinine,µmol/L,50.384217,61.9,115,3
01-002,1,Site 01,24,F,Black,Treatment A,5/30/2015,Y,Visit 3,3,11/15/2015,170,Serum,Direct Bilirubin,µmol/L,4.542442871,0,5.1,3
01-002,1,Site 01,24,F,Black,Treatment A,5/30/2015,Y,Visit 3,3,11/15/2015,170,Serum,IgE,mg/L,0.182069915,0.1,0.4,3
01-002,1,Site 01,24,F,Black,Treatment A,5/30/2015,Y,Visit 3,3,11/15/2015,170,Serum,Magnesium,mmol/L,0.610819067,0.62,0.99,3
01-002,1,Site 01,24,F,Black,Treatment A,5/30/2015,Y,Visit 3,3,11/15/2015,170,Serum,Potassium,mmol/L,3.104833205,3.5,5,3
01-002,1,Site 01,24,F,Black,Treatment A,5/30/2015,Y,Visit 3,3,11/15/2015,170,Serum,Sodium,mmol/L,,136,145,3
01-002,1,Site 01,24,F,Black,Treatment A,5/30/2015,Y,Visit 3,3,11/15/2015,170,Serum,Total Bilirubin,µmol/L,8.831399433,5.1,20.5,3
01-002,1,Site 01,24,F,Black,Treatment A,5/30/2015,Y,Visit 3,3,11/15/2015,170,Vital Signs,Diastolic Blood Pressure,mmHg,,60,80,3
01-002,1,Site 01,24,F,Black,Treatment A,5/30/2015,Y,Visit 3,3,11/15/2015,170,Vital Signs,Heart Rate,beats/minute,,50,80,3
01-002,1,Site 01,24,F,Black,Treatment A,5/30/2015,Y,Visit 3,3,11/15/2015,170,Vital Signs,Respiratory Rate,breaths/minute,18.8915689,16,20,3
01-002,1,Site 01,24,F,Black,Treatment A,5/30/2015,Y,Visit 3,3,11/15/2015,170,Vital Signs,Systolic Blood Pressure,mmHg,108.4252368,90,120,3
01-002,1,Site 01,24,F,Black,Treatment A,5/30/2015,Y,Visit 3,3,11/15/2015,170,Vital Signs,Temperature,°C,36.55720168,36.6,37,3
01-002,1,Site 01,24,F,Black,Treatment A,5/30/2015,Y,Visit 4,4,1/6/2016,222,Blood,Platelet count,x 109/L,319.6003614,150,350,4
01-002,1,Site 01,24,F,Black,Treatment A,5/30/2015,Y,Visit 4,4,1/6/2016,222,Blood,RBC count,x 1012 cells/L,4.783929296,4.2,5.9,4
01-002,1,Site 01,24,F,Black,Treatment A,5/30/2015,Y,Visit 4,4,1/6/2016,222,Blood,WBC count,x 109 cells/L,0,4.5,11,4
01-002,1,Site 01,24,F,Black,Treatment A,5/30/2015,Y,Visit 4,4,1/6/2016,222,Serum,Albumin,g/L,59.4459862,35,55,4
01-002,1,Site 01,24,F,Black,Treatment A,5/30/2015,Y,Visit 4,4,1/6/2016,222,Serum,Alkaline phosphatase (ALP),µkat/L,1.4334728,0.5,1.5,4
01-002,1,Site 01,24,F,Black,Treatment A,5/30/2015,Y,Visit 4,4,1/6/2016,222,Serum,"Aminotransferase, alanine (ALT)",pkat/L,0,0,0.58,4
01-002,1,Site 01,24,F,Black,Treatment A,5/30/2015,Y,Visit 4,4,1/6/2016,222,Serum,"Aminotransferase, aspartate (AST)",pkat/L,0.173922571,0,0.58,4
01-002,1,Site 01,24,F,Black,Treatment A,5/30/2015,Y,Visit 4,4,1/6/2016,222,Serum,Calcium,mmol/L,1.990854421,2.2,2.6,4
01-002,1,Site 01,24,F,Black,Treatment A,5/30/2015,Y,Visit 4,4,1/6/2016,222,Serum,Chloride,mmol/L,100.5670855,98,106,4
01-002,1,Site 01,24,F,Black,Treatment A,5/30/2015,Y,Visit 4,4,1/6/2016,222,Serum,Creatinine,µmol/L,89.67715642,61.9,115,4
01-002,1,Site 01,24,F,Black,Treatment A,5/30/2015,Y,Visit 4,4,1/6/2016,222,Serum,Direct Bilirubin,µmol/L,3.022748243,0,5.1,4
01-002,1,Site 01,24,F,Black,Treatment A,5/30/2015,Y,Visit 4,4,1/6/2016,222,Serum,IgE,mg/L,0.121838117,0.1,0.4,4
01-002,1,Site 01,24,F,Black,Treatment A,5/30/2015,Y,Visit 4,4,1/6/2016,222,Serum,Magnesium,mmol/L,1.217766137,0.62,0.99,4
01-002,1,Site 01,24,F,Black,Treatment A,5/30/2015,Y,Visit 4,4,1/6/2016,222,Serum,Potassium,mmol/L,3.177400917,3.5,5,4
01-002,1,Site 01,24,F,Black,Treatment A,5/30/2015,Y,Visit 4,4,1/6/2016,222,Serum,Sodium,mmol/L,136.786326,136,145,4
01-002,1,Site 01,24,F,Black,Treatment A,5/30/2015,Y,Visit 4,4,1/6/2016,222,Serum,Total Bilirubin,µmol/L,,5.1,20.5,4
01-002,1,Site 01,24,F,Black,Treatment A,5/30/2015,Y,Visit 4,4,1/6/2016,222,Vital Signs,Diastolic Blood Pressure,mmHg,77.49404846,60,80,4
01-002,1,Site 01,24,F,Black,Treatment A,5/30/2015,Y,Visit 4,4,1/6/2016,222,Vital Signs,Heart Rate,beats/minute,64.53597906,50,80,4
01-002,1,Site 01,24,F,Black,Treatment A,5/30/2015,Y,Visit 4,4,1/6/2016,222,Vital Signs,Respiratory Rate,breaths/minute,19.58235227,16,20,4
01-002,1,Site 01,24,F,Black,Treatment A,5/30/2015,Y,Visit 4,4,1/6/2016,222,Vital Signs,Systolic Blood Pressure,mmHg,,90,120,4
01-002,1,Site 01,24,F,Black,Treatment A,5/30/2015,Y,Visit 4,4,1/6/2016,222,Vital Signs,Temperature,°C,36.85928357,36.6,37,4
01-002,1,Site 01,24,F,Black,Treatment A,5/30/2015,Y,Visit 5,5,3/5/2016,281,Blood,Platelet count,x 109/L,354.2478202,150,350,5
01-002,1,Site 01,24,F,Black,Treatment A,5/30/2015,Y,Visit 5,5,3/5/2016,281,Blood,RBC count,x 1012 cells/L,3.27582361,4.2,5.9,5
01-002,1,Site 01,24,F,Black,Treatment A,5/30/2015,Y,Visit 5,5,3/5/2016,281,Blood,WBC count,x 109 cells/L,,4.5,11,5
01-002,1,Site 01,24,F,Black,Treatment A,5/30/2015,Y,Visit 5,5,3/5/2016,281,Serum,Albumin,g/L,50.30159887,35,55,5
01-002,1,Site 01,24,F,Black,Treatment A,5/30/2015,Y,Visit 5,5,3/5/2016,281,Serum,Alkaline phosphatase (ALP),µkat/L,0.9711598,0.5,1.5,5
01-002,1,Site 01,24,F,Black,Treatment A,5/30/2015,Y,Visit 5,5,3/5/2016,281,Serum,"Aminotransferase, alanine (ALT)",pkat/L,0.509856817,0,0.58,5
01-002,1,Site 01,24,F,Black,Treatment A,5/30/2015,Y,Visit 5,5,3/5/2016,281,Serum,"Aminotransferase, aspartate (AST)",pkat/L,0,0,0.58,5
01-002,1,Site 01,24,F,Black,Treatment A,5/30/2015,Y,Visit 5,5,3/5/2016,281,Serum,Calcium,mmol/L,2.493766618,2.2,2.6,5
01-002,1,Site 01,24,F,Black,Treatment A,5/30/2015,Y,Visit 5,5,3/5/2016,281,Serum,Chloride,mmol/L,105.9679053,98,106,5
01-002,1,Site 01,24,F,Black,Treatment A,5/30/2015,Y,Visit 5,5,3/5/2016,281,Serum,Creatinine,µmol/L,95.49582004,61.9,115,5
01-002,1,Site 01,24,F,Black,Treatment A,5/30/2015,Y,Visit 5,5,3/5/2016,281,Serum,Direct Bilirubin,µmol/L,4.736370443,0,5.1,5
01-002,1,Site 01,24,F,Black,Treatment A,5/30/2015,Y,Visit 5,5,3/5/2016,281,Serum,IgE,mg/L,0.298985539,0.1,0.4,5
01-002,1,Site 01,24,F,Black,Treatment A,5/30/2015,Y,Visit 5,5,3/5/2016,281,Serum,Magnesium,mmol/L,0.41108448,0.62,0.99,5
01-002,1,Site 01,24,F,Black,Treatment A,5/30/2015,Y,Visit 5,5,3/5/2016,281,Serum,Potassium,mmol/L,,3.5,5,5
01-002,1,Site 01,24,F,Black,Treatment A,5/30/2015,Y,Visit 5,5,3/5/2016,281,Serum,Sodium,mmol/L,147.5156694,136,145,5
01-002,1,Site 01,24,F,Black,Treatment A,5/30/2015,Y,Visit 5,5,3/5/2016,281,Serum,Total Bilirubin,µmol/L,31.11507165,5.1,20.5,5
01-002,1,Site 01,24,F,Black,Treatment A,5/30/2015,Y,Visit 5,5,3/5/2016,281,Vital Signs,Diastolic Blood Pressure,mmHg,69.59638715,60,80,5
01-002,1,Site 01,24,F,Black,Treatment A,5/30/2015,Y,Visit 5,5,3/5/2016,281,Vital Signs,Heart Rate,beats/minute,67.54342956,50,80,5
01-002,1,Site 01,24,F,Black,Treatment A,5/30/2015,Y,Visit 5,5,3/5/2016,281,Vital Signs,Respiratory Rate,breaths/minute,15.0484415,16,20,5
01-002,1,Site 01,24,F,Black,Treatment A,5/30/2015,Y,Visit 5,5,3/5/2016,281,Vital Signs,Systolic Blood Pressure,mmHg,109.4910509,90,120,5
01-002,1,Site 01,24,F,Black,Treatment A,5/30/2015,Y,Visit 5,5,3/5/2016,281,Vital Signs,Temperature,°C,36.92662058,36.6,37,5
01-002,1,Site 01,24,F,Black,Treatment A,5/30/2015,Y,Visit 6,6,4/26/2016,333,Blood,Platelet count,x 109/L,324.1228335,150,350,6
01-002,1,Site 01,24,F,Black,Treatment A,5/30/2015,Y,Visit 6,6,4/26/2016,333,Blood,RBC count,x 1012 cells/L,,4.2,5.9,6
01-002,1,Site 01,24,F,Black,Treatment A,5/30/2015,Y,Visit 6,6,4/26/2016,333,Blood,WBC count,x 109 cells/L,2.535938102,4.5,11,6
01-002,1,Site 01,24,F,Black,Treatment A,5/30/2015,Y,Visit 6,6,4/26/2016,333,Serum,Albumin,g/L,52.96209693,35,55,6
01-002,1,Site 01,24,F,Black,Treatment A,5/30/2015,Y,Visit 6,6,4/26/2016,333,Serum,Alkaline phosphatase (ALP),µkat/L,0.218010576,0.5,1.5,6
01-002,1,Site 01,24,F,Black,Treatment A,5/30/2015,Y,Visit 6,6,4/26/2016,333,Serum,"Aminotransferase, alanine (ALT)",pkat/L,,0,0.58,6
01-002,1,Site 01,24,F,Black,Treatment A,5/30/2015,Y,Visit 6,6,4/26/2016,333,Serum,"Aminotransferase, aspartate (AST)",pkat/L,0.201892388,0,0.58,6
01-002,1,Site 01,24,F,Black,Treatment A,5/30/2015,Y,Visit 6,6,4/26/2016,333,Serum,Calcium,mmol/L,,2.2,2.6,6
01-002,1,Site 01,24,F,Black,Treatment A,5/30/2015,Y,Visit 6,6,4/26/2016,333,Serum,Chloride,mmol/L,105.4316137,98,106,6
01-002,1,Site 01,24,F,Black,Treatment A,5/30/2015,Y,Visit 6,6,4/26/2016,333,Serum,Creatinine,µmol/L,78.28300884,61.9,115,6
01-002,1,Site 01,24,F,Black,Treatment A,5/30/2015,Y,Visit 6,6,4/26/2016,333,Serum,Direct Bilirubin,µmol/L,0,0,5.1,6
01-002,1,Site 01,24,F,Black,Treatment A,5/30/2015,Y,Visit 6,6,4/26/2016,333,Serum,IgE,mg/L,0.347912271,0.1,0.4,6
01-002,1,Site 01,24,F,Black,Treatment A,5/30/2015,Y,Visit 6,6,4/26/2016,333,Serum,Magnesium,mmol/L,,0.62,0.99,6
01-002,1,Site 01,24,F,Black,Treatment A,5/30/2015,Y,Visit 6,6,4/26/2016,333,Serum,Potassium,mmol/L,6.574993171,3.5,5,6
01-002,1,Site 01,24,F,Black,Treatment A,5/30/2015,Y,Visit 6,6,4/26/2016,333,Serum,Sodium,mmol/L,128.055774,136,145,6
01-002,1,Site 01,24,F,Black,Treatment A,5/30/2015,Y,Visit 6,6,4/26/2016,333,Serum,Total Bilirubin,µmol/L,8.732306597,5.1,20.5,6
01-002,1,Site 01,24,F,Black,Treatment A,5/30/2015,Y,Visit 6,6,4/26/2016,333,Vital Signs,Diastolic Blood Pressure,mmHg,72.3201975,60,80,6
01-002,1,Site 01,24,F,Black,Treatment A,5/30/2015,Y,Visit 6,6,4/26/2016,333,Vital Signs,Heart Rate,beats/minute,61.88471485,50,80,6
01-002,1,Site 01,24,F,Black,Treatment A,5/30/2015,Y,Visit 6,6,4/26/2016,333,Vital Signs,Respiratory Rate,breaths/minute,19.08104996,16,20,6
01-002,1,Site 01,24,F,Black,Treatment A,5/30/2015,Y,Visit 6,6,4/26/2016,333,Vital Signs,Systolic Blood Pressure,mmHg,117.1216403,90,120,6
01-002,1,Site 01,24,F,Black,Treatment A,5/30/2015,Y,Visit 6,6,4/26/2016,333,Vital Signs,Temperature,°C,36.98458522,36.6,37,6
01-002,1,Site 01,24,F,Black,Treatment A,5/30/2015,Y,Unscheduled 6.1,6.1,5/4/2016,341,Blood,Platelet count,x 109/L,198.1086092,150,350,6.1
01-002,1,Site 01,24,F,Black,Treatment A,5/30/2015,Y,Unscheduled 6.1,6.1,5/4/2016,341,Blood,RBC count,x 1012 cells/L,5.794374562,4.2,5.9,6.1
01-002,1,Site 01,24,F,Black,Treatment A,5/30/2015,Y,Unscheduled 6.1,6.1,5/4/2016,341,Blood,WBC count,x 109 cells/L,8.510416902,4.5,11,6.1
01-002,1,Site 01,24,F,Black,Treatment A,5/30/2015,Y,Unscheduled 6.1,6.1,5/4/2016,341,Serum,Albumin,g/L,44.10218657,35,55,6.1
01-002,1,Site 01,24,F,Black,Treatment A,5/30/2015,Y,Unscheduled 6.1,6.1,5/4/2016,341,Serum,Alkaline phosphatase (ALP),µkat/L,1.527979731,0.5,1.5,6.1
01-002,1,Site 01,24,F,Black,Treatment A,5/30/2015,Y,Unscheduled 6.1,6.1,5/4/2016,341,Serum,"Aminotransferase, alanine (ALT)",pkat/L,0.00387593,0,0.58,6.1
01-002,1,Site 01,24,F,Black,Treatment A,5/30/2015,Y,Unscheduled 6.1,6.1,5/4/2016,341,Serum,"Aminotransferase, aspartate (AST)",pkat/L,0.500303706,0,0.58,6.1
01-002,1,Site 01,24,F,Black,Treatment A,5/30/2015,Y,Unscheduled 6.1,6.1,5/4/2016,341,Serum,Calcium,mmol/L,2.518926492,2.2,2.6,6.1
01-002,1,Site 01,24,F,Black,Treatment A,5/30/2015,Y,Unscheduled 6.1,6.1,5/4/2016,341,Serum,Chloride,mmol/L,104.9318639,98,106,6.1
01-002,1,Site 01,24,F,Black,Treatment A,5/30/2015,Y,Unscheduled 6.1,6.1,5/4/2016,341,Serum,Creatinine,µmol/L,77.19297666,61.9,115,6.1
01-002,1,Site 01,24,F,Black,Treatment A,5/30/2015,Y,Unscheduled 6.1,6.1,5/4/2016,341,Serum,Direct Bilirubin,µmol/L,2.729250185,0,5.1,6.1
01-002,1,Site 01,24,F,Black,Treatment A,5/30/2015,Y,Unscheduled 6.1,6.1,5/4/2016,341,Serum,IgE,mg/L,0.117412432,0.1,0.4,6.1
01-002,1,Site 01,24,F,Black,Treatment A,5/30/2015,Y,Unscheduled 6.1,6.1,5/4/2016,341,Serum,Magnesium,mmol/L,1.041374203,0.62,0.99,6.1
01-002,1,Site 01,24,F,Black,Treatment A,5/30/2015,Y,Unscheduled 6.1,6.1,5/4/2016,341,Serum,Potassium,mmol/L,5.001672634,3.5,5,6.1
01-002,1,Site 01,24,F,Black,Treatment A,5/30/2015,Y,Unscheduled 6.1,6.1,5/4/2016,341,Serum,Sodium,mmol/L,140.1525056,136,145,6.1
01-002,1,Site 01,24,F,Black,Treatment A,5/30/2015,Y,Unscheduled 6.1,6.1,5/4/2016,341,Serum,Total Bilirubin,µmol/L,8.728437908,5.1,20.5,6.1
01-002,1,Site 01,24,F,Black,Treatment A,5/30/2015,Y,Unscheduled 6.1,6.1,5/4/2016,341,Vital Signs,Diastolic Blood Pressure,mmHg,62.64223036,60,80,6.1
01-002,1,Site 01,24,F,Black,Treatment A,5/30/2015,Y,Unscheduled 6.1,6.1,5/4/2016,341,Vital Signs,Heart Rate,beats/minute,77.38066282,50,80,6.1
01-002,1,Site 01,24,F,Black,Treatment A,5/30/2015,Y,Unscheduled 6.1,6.1,5/4/2016,341,Vital Signs,Respiratory Rate,breaths/minute,,16,20,6.1
01-002,1,Site 01,24,F,Black,Treatment A,5/30/2015,Y,Unscheduled 6.1,6.1,5/4/2016,341,Vital Signs,Systolic Blood Pressure,mmHg,105.2642055,90,120,6.1
01-002,1,Site 01,24,F,Black,Treatment A,5/30/2015,Y,Unscheduled 6.1,6.1,5/4/2016,341,Vital Signs,Temperature,°C,37.11128429,36.6,37,6.1
01-002,1,Site 01,24,F,Black,Treatment A,5/30/2015,Y,End of Study,7,5/29/2016,366,Blood,Platelet count,x 109/L,497.8889967,150,350,7
01-002,1,Site 01,24,F,Black,Treatment A,5/30/2015,Y,End of Study,7,5/29/2016,366,Blood,RBC count,x 1012 cells/L,5.088578617,4.2,5.9,7
01-002,1,Site 01,24,F,Black,Treatment A,5/30/2015,Y,End of Study,7,5/29/2016,366,Blood,WBC count,x 109 cells/L,0.050571408,4.5,11,7
01-002,1,Site 01,24,F,Black,Treatment A,5/30/2015,Y,End of Study,7,5/29/2016,366,Serum,Albumin,g/L,50.06598694,35,55,7
01-002,1,Site 01,24,F,Black,Treatment A,5/30/2015,Y,End of Study,7,5/29/2016,366,Serum,Alkaline phosphatase (ALP),µkat/L,0.561766187,0.5,1.5,7
01-002,1,Site 01,24,F,Black,Treatment A,5/30/2015,Y,End of Study,7,5/29/2016,366,Serum,"Aminotransferase, alanine (ALT)",pkat/L,0.060595329,0,0.58,7
01-002,1,Site 01,24,F,Black,Treatment A,5/30/2015,Y,End of Study,7,5/29/2016,366,Serum,"Aminotransferase, aspartate (AST)",pkat/L,0.010357766,0,0.58,7
01-002,1,Site 01,24,F,Black,Treatment A,5/30/2015,Y,End of Study,7,5/29/2016,366,Serum,Calcium,mmol/L,2.270859338,2.2,2.6,7
01-002,1,Site 01,24,F,Black,Treatment A,5/30/2015,Y,End of Study,7,5/29/2016,366,Serum,Chloride,mmol/L,,98,106,7
01-002,1,Site 01,24,F,Black,Treatment A,5/30/2015,Y,End of Study,7,5/29/2016,366,Serum,Creatinine,µmol/L,52.90476463,61.9,115,7
01-002,1,Site 01,24,F,Black,Treatment A,5/30/2015,Y,End of Study,7,5/29/2016,366,Serum,Direct Bilirubin,µmol/L,,0,5.1,7
01-002,1,Site 01,24,F,Black,Treatment A,5/30/2015,Y,End of Study,7,5/29/2016,366,Serum,IgE,mg/L,0.337110825,0.1,0.4,7
01-002,1,Site 01,24,F,Black,Treatment A,5/30/2015,Y,End of Study,7,5/29/2016,366,Serum,Magnesium,mmol/L,0.751692466,0.62,0.99,7
01-002,1,Site 01,24,F,Black,Treatment A,5/30/2015,Y,End of Study,7,5/29/2016,366,Serum,Potassium,mmol/L,4.066871023,3.5,5,7
01-002,1,Site 01,24,F,Black,Treatment A,5/30/2015,Y,End of Study,7,5/29/2016,366,Serum,Sodium,mmol/L,146.4560172,136,145,7
01-002,1,Site 01,24,F,Black,Treatment A,5/30/2015,Y,End of Study,7,5/29/2016,366,Serum,Total Bilirubin,µmol/L,0.060588617,5.1,20.5,7
01-002,1,Site 01,24,F,Black,Treatment A,5/30/2015,Y,End of Study,7,5/29/2016,366,Vital Signs,Diastolic Blood Pressure,mmHg,54.89125662,60,80,7
01-002,1,Site 01,24,F,Black,Treatment A,5/30/2015,Y,End of Study,7,5/29/2016,366,Vital Signs,Heart Rate,beats/minute,46.83411396,50,80,7
01-002,1,Site 01,24,F,Black,Treatment A,5/30/2015,Y,End of Study,7,5/29/2016,366,Vital Signs,Respiratory Rate,breaths/minute,21.23119081,16,20,7
01-002,1,Site 01,24,F,Black,Treatment A,5/30/2015,Y,End of Study,7,5/29/2016,366,Vital Signs,Systolic Blood Pressure,mmHg,116.0122019,90,120,7
01-002,1,Site 01,24,F,Black,Treatment A,5/30/2015,Y,End of Study,7,5/29/2016,366,Vital Signs,Temperature,°C,36.90401399,36.6,37,7
01-003,1,Site 01,43,F,Hispanic,Placebo,8/14/2015,Y,Screening,0,8/14/2015,1,Blood,Platelet count,x 109/L,223.5599473,150,350,0
01-003,1,Site 01,43,F,Hispanic,Placebo,8/14/2015,Y,Screening,0,8/14/2015,1,Blood,RBC count,x 1012 cells/L,4.572407833,4.2,5.9,0
01-003,1,Site 01,43,F,Hispanic,Placebo,8/14/2015,Y,Screening,0,8/14/2015,1,Blood,WBC count,x 109 cells/L,7.964472724,4.5,11,0
01-003,1,Site 01,43,F,Hispanic,Placebo,8/14/2015,Y,Screening,0,8/14/2015,1,Serum,Albumin,g/L,39.07098645,35,55,0
01-003,1,Site 01,43,F,Hispanic,Placebo,8/14/2015,Y,Screening,0,8/14/2015,1,Serum,Alkaline phosphatase (ALP),µkat/L,,0.5,1.5,0
01-003,1,Site 01,43,F,Hispanic,Placebo,8/14/2015,Y,Screening,0,8/14/2015,1,Serum,"Aminotransferase, alanine (ALT)",pkat/L,0,0,0.58,0
01-003,1,Site 01,43,F,Hispanic,Placebo,8/14/2015,Y,Screening,0,8/14/2015,1,Serum,"Aminotransferase, aspartate (AST)",pkat/L,0.361388807,0,0.58,0
01-003,1,Site 01,43,F,Hispanic,Placebo,8/14/2015,Y,Screening,0,8/14/2015,1,Serum,Calcium,mmol/L,2.245799332,2.2,2.6,0
01-003,1,Site 01,43,F,Hispanic,Placebo,8/14/2015,Y,Screening,0,8/14/2015,1,Serum,Chloride,mmol/L,109.6580422,98,106,0
01-003,1,Site 01,43,F,Hispanic,Placebo,8/14/2015,Y,Screening,0,8/14/2015,1,Serum,Creatinine,µmol/L,87.9418324,61.9,115,0
01-003,1,Site 01,43,F,Hispanic,Placebo,8/14/2015,Y,Screening,0,8/14/2015,1,Serum,Direct Bilirubin,µmol/L,2.725419419,0,5.1,0
01-003,1,Site 01,43,F,Hispanic,Placebo,8/14/2015,Y,Screening,0,8/14/2015,1,Serum,IgE,mg/L,0.064599424,0.1,0.4,0
01-003,1,Site 01,43,F,Hispanic,Placebo,8/14/2015,Y,Screening,0,8/14/2015,1,Serum,Magnesium,mmol/L,0.914394758,0.62,0.99,0
01-003,1,Site 01,43,F,Hispanic,Placebo,8/14/2015,Y,Screening,0,8/14/2015,1,Serum,Potassium,mmol/L,3.486452324,3.5,5,0
01-003,1,Site 01,43,F,Hispanic,Placebo,8/14/2015,Y,Screening,0,8/14/2015,1,Serum,Sodium,mmol/L,147.1944407,136,145,0
01-003,1,Site 01,43,F,Hispanic,Placebo,8/14/2015,Y,Screening,0,8/14/2015,1,Serum,Total Bilirubin,µmol/L,21.72065356,5.1,20.5,0
01-003,1,Site 01,43,F,Hispanic,Placebo,8/14/2015,Y,Screening,0,8/14/2015,1,Vital Signs,Diastolic Blood Pressure,mmHg,79.19048678,60,80,0
01-003,1,Site 01,43,F,Hispanic,Placebo,8/14/2015,Y,Screening,0,8/14/2015,1,Vital Signs,Heart Rate,beats/minute,83.77214715,50,80,0
01-003,1,Site 01,43,F,Hispanic,Placebo,8/14/2015,Y,Screening,0,8/14/2015,1,Vital Signs,Respiratory Rate,breaths/minute,17.09947194,16,20,0
01-003,1,Site 01,43,F,Hispanic,Placebo,8/14/2015,Y,Screening,0,8/14/2015,1,Vital Signs,Systolic Blood Pressure,mmHg,118.9958481,90,120,0
01-003,1,Site 01,43,F,Hispanic,Placebo,8/14/2015,Y,Screening,0,8/14/2015,1,Vital Signs,Temperature,°C,36.50739455,36.6,37,0
01-003,1,Site 01,43,F,Hispanic,Placebo,8/14/2015,Y,Unscheduled 0.1,0.1,8/22/2015,9,Blood,Platelet count,x 109/L,311.0077728,150,350,0.1
01-003,1,Site 01,43,F,Hispanic,Placebo,8/14/2015,Y,Unscheduled 0.1,0.1,8/22/2015,9,Blood,RBC count,x 1012 cells/L,4.113593701,4.2,5.9,0.1
01-003,1,Site 01,43,F,Hispanic,Placebo,8/14/2015,Y,Unscheduled 0.1,0.1,8/22/2015,9,Blood,WBC count,x 109 cells/L,2.7755036,4.5,11,0.1
01-003,1,Site 01,43,F,Hispanic,Placebo,8/14/2015,Y,Unscheduled 0.1,0.1,8/22/2015,9,Serum,Albumin,g/L,55.30716958,35,55,0.1
01-003,1,Site 01,43,F,Hispanic,Placebo,8/14/2015,Y,Unscheduled 0.1,0.1,8/22/2015,9,Serum,Alkaline phosphatase (ALP),µkat/L,1.504575815,0.5,1.5,0.1
01-003,1,Site 01,43,F,Hispanic,Placebo,8/14/2015,Y,Unscheduled 0.1,0.1,8/22/2015,9,Serum,"Aminotransferase, alanine (ALT)",pkat/L,0.577604796,0,0.58,0.1
01-003,1,Site 01,43,F,Hispanic,Placebo,8/14/2015,Y,Unscheduled 0.1,0.1,8/22/2015,9,Serum,"Aminotransferase, aspartate (AST)",pkat/L,0,0,0.58,0.1
01-003,1,Site 01,43,F,Hispanic,Placebo,8/14/2015,Y,Unscheduled 0.1,0.1,8/22/2015,9,Serum,Calcium,mmol/L,2.476014513,2.2,2.6,0.1
01-003,1,Site 01,43,F,Hispanic,Placebo,8/14/2015,Y,Unscheduled 0.1,0.1,8/22/2015,9,Serum,Chloride,mmol/L,97.03850571,98,106,0.1
01-003,1,Site 01,43,F,Hispanic,Placebo,8/14/2015,Y,Unscheduled 0.1,0.1,8/22/2015,9,Serum,Creatinine,µmol/L,10.96360025,61.9,115,0.1
01-003,1,Site 01,43,F,Hispanic,Placebo,8/14/2015,Y,Unscheduled 0.1,0.1,8/22/2015,9,Serum,Direct Bilirubin,µmol/L,0.580236764,0,5.1,0.1
01-003,1,Site 01,43,F,Hispanic,Placebo,8/14/2015,Y,Unscheduled 0.1,0.1,8/22/2015,9,Serum,IgE,mg/L,0.385207651,0.1,0.4,0.1
01-003,1,Site 01,43,F,Hispanic,Placebo,8/14/2015,Y,Unscheduled 0.1,0.1,8/22/2015,9,Serum,Magnesium,mmol/L,0.902716574,0.62,0.99,0.1
01-003,1,Site 01,43,F,Hispanic,Placebo,8/14/2015,Y,Unscheduled 0.1,0.1,8/22/2015,9,Serum,Potassium,mmol/L,2.949690179,3.5,5,0.1
01-003,1,Site 01,43,F,Hispanic,Placebo,8/14/2015,Y,Unscheduled 0.1,0.1,8/22/2015,9,Serum,Sodium,mmol/L,145.7819803,136,145,0.1
01-003,1,Site 01,43,F,Hispanic,Placebo,8/14/2015,Y,Unscheduled 0.1,0.1,8/22/2015,9,Serum,Total Bilirubin,µmol/L,7.549219934,5.1,20.5,0.1
01-003,1,Site 01,43,F,Hispanic,Placebo,8/14/2015,Y,Unscheduled 0.1,0.1,8/22/2015,9,Vital Signs,Diastolic Blood Pressure,mmHg,46.79729612,60,80,0.1
01-003,1,Site 01,43,F,Hispanic,Placebo,8/14/2015,Y,Unscheduled 0.1,0.1,8/22/2015,9,Vital Signs,Heart Rate,beats/minute,68.64581012,50,80,0.1
01-003,1,Site 01,43,F,Hispanic,Placebo,8/14/2015,Y,Unscheduled 0.1,0.1,8/22/2015,9,Vital Signs,Respiratory Rate,breaths/minute,22.11518658,16,20,0.1
01-003,1,Site 01,43,F,Hispanic,Placebo,8/14/2015,Y,Unscheduled 0.1,0.1,8/22/2015,9,Vital Signs,Systolic Blood Pressure,mmHg,103.2745655,90,120,0.1
01-003,1,Site 01,43,F,Hispanic,Placebo,8/14/2015,Y,Unscheduled 0.1,0.1,8/22/2015,9,Vital Signs,Temperature,°C,36.63871206,36.6,37,0.1
01-003,1,Site 01,43,F,Hispanic,Placebo,8/14/2015,Y,Visit 1,1,10/5/2015,53,Blood,Platelet count,x 109/L,175.290583,150,350,1
01-003,1,Site 01,43,F,Hispanic,Placebo,8/14/2015,Y,Visit 1,1,10/5/2015,53,Blood,RBC count,x 1012 cells/L,5.07654526,4.2,5.9,1
01-003,1,Site 01,43,F,Hispanic,Placebo,8/14/2015,Y,Visit 1,1,10/5/2015,53,Blood,WBC count,x 109 cells/L,6.653016511,4.5,11,1
01-003,1,Site 01,43,F,Hispanic,Placebo,8/14/2015,Y,Visit 1,1,10/5/2015,53,Serum,Albumin,g/L,42.99280371,35,55,1
01-003,1,Site 01,43,F,Hispanic,Placebo,8/14/2015,Y,Visit 1,1,10/5/2015,53,Serum,Alkaline phosphatase (ALP),µkat/L,1.229936186,0.5,1.5,1
01-003,1,Site 01,43,F,Hispanic,Placebo,8/14/2015,Y,Visit 1,1,10/5/2015,53,Serum,"Aminotransferase, alanine (ALT)",pkat/L,0.779353026,0,0.58,1
01-003,1,Site 01,43,F,Hispanic,Placebo,8/14/2015,Y,Visit 1,1,10/5/2015,53,Serum,"Aminotransferase, aspartate (AST)",pkat/L,0.563865659,0,0.58,1
01-003,1,Site 01,43,F,Hispanic,Placebo,8/14/2015,Y,Visit 1,1,10/5/2015,53,Serum,Calcium,mmol/L,2.398741363,2.2,2.6,1
01-003,1,Site 01,43,F,Hispanic,Placebo,8/14/2015,Y,Visit 1,1,10/5/2015,53,Serum,Chloride,mmol/L,,98,106,1
01-003,1,Site 01,43,F,Hispanic,Placebo,8/14/2015,Y,Visit 1,1,10/5/2015,53,Serum,Creatinine,µmol/L,46.67683263,61.9,115,1
01-003,1,Site 01,43,F,Hispanic,Placebo,8/14/2015,Y,Visit 1,1,10/5/2015,53,Serum,Direct Bilirubin,µmol/L,2.415580126,0,5.1,1
01-003,1,Site 01,43,F,Hispanic,Placebo,8/14/2015,Y,Visit 1,1,10/5/2015,53,Serum,IgE,mg/L,0.166788773,0.1,0.4,1
01-003,1,Site 01,43,F,Hispanic,Placebo,8/14/2015,Y,Visit 1,1,10/5/2015,53,Serum,Magnesium,mmol/L,1.075484104,0.62,0.99,1
01-003,1,Site 01,43,F,Hispanic,Placebo,8/14/2015,Y,Visit 1,1,10/5/2015,53,Serum,Potassium,mmol/L,6.00745951,3.5,5,1
01-003,1,Site 01,43,F,Hispanic,Placebo,8/14/2015,Y,Visit 1,1,10/5/2015,53,Serum,Sodium,mmol/L,136.8256322,136,145,1
01-003,1,Site 01,43,F,Hispanic,Placebo,8/14/2015,Y,Visit 1,1,10/5/2015,53,Serum,Total Bilirubin,µmol/L,26.59053646,5.1,20.5,1
01-003,1,Site 01,43,F,Hispanic,Placebo,8/14/2015,Y,Visit 1,1,10/5/2015,53,Vital Signs,Diastolic Blood Pressure,mmHg,72.20387785,60,80,1
01-003,1,Site 01,43,F,Hispanic,Placebo,8/14/2015,Y,Visit 1,1,10/5/2015,53,Vital Signs,Heart Rate,beats/minute,73.80956482,50,80,1
01-003,1,Site 01,43,F,Hispanic,Placebo,8/14/2015,Y,Visit 1,1,10/5/2015,53,Vital Signs,Respiratory Rate,breaths/minute,,16,20,1
01-003,1,Site 01,43,F,Hispanic,Placebo,8/14/2015,Y,Visit 1,1,10/5/2015,53,Vital Signs,Systolic Blood Pressure,mmHg,83.08498588,90,120,1
01-003,1,Site 01,43,F,Hispanic,Placebo,8/14/2015,Y,Visit 1,1,10/5/2015,53,Vital Signs,Temperature,°C,36.85588769,36.6,37,1
01-003,1,Site 01,43,F,Hispanic,Placebo,8/14/2015,Y,Visit 2,2,12/9/2015,118,Blood,Platelet count,x 109/L,124.6711472,150,350,2
01-003,1,Site 01,43,F,Hispanic,Placebo,8/14/2015,Y,Visit 2,2,12/9/2015,118,Blood,RBC count,x 1012 cells/L,4.792404468,4.2,5.9,2
01-003,1,Site 01,43,F,Hispanic,Placebo,8/14/2015,Y,Visit 2,2,12/9/2015,118,Blood,WBC count,x 109 cells/L,9.628842867,4.5,11,2
01-003,1,Site 01,43,F,Hispanic,Placebo,8/14/2015,Y,Visit 2,2,12/9/2015,118,Serum,Albumin,g/L,46.89716238,35,55,2
01-003,1,Site 01,43,F,Hispanic,Placebo,8/14/2015,Y,Visit 2,2,12/9/2015,118,Serum,Alkaline phosphatase (ALP),µkat/L,1.008996809,0.5,1.5,2
01-003,1,Site 01,43,F,Hispanic,Placebo,8/14/2015,Y,Visit 2,2,12/9/2015,118,Serum,"Aminotransferase, alanine (ALT)",pkat/L,0.311555987,0,0.58,2
01-003,1,Site 01,43,F,Hispanic,Placebo,8/14/2015,Y,Visit 2,2,12/9/2015,118,Serum,"Aminotransferase, aspartate (AST)",pkat/L,0.473704995,0,0.58,2
01-003,1,Site 01,43,F,Hispanic,Placebo,8/14/2015,Y,Visit 2,2,12/9/2015,118,Serum,Calcium,mmol/L,2.486301736,2.2,2.6,2
01-003,1,Site 01,43,F,Hispanic,Placebo,8/14/2015,Y,Visit 2,2,12/9/2015,118,Serum,Chloride,mmol/L,103.6892434,98,106,2
01-003,1,Site 01,43,F,Hispanic,Placebo,8/14/2015,Y,Visit 2,2,12/9/2015,118,Serum,Creatinine,µmol/L,115.9438529,61.9,115,2
01-003,1,Site 01,43,F,Hispanic,Placebo,8/14/2015,Y,Visit 2,2,12/9/2015,118,Serum,Direct Bilirubin,µmol/L,0,0,5.1,2
01-003,1,Site 01,43,F,Hispanic,Placebo,8/14/2015,Y,Visit 2,2,12/9/2015,118,Serum,IgE,mg/L,0.752358038,0.1,0.4,2
01-003,1,Site 01,43,F,Hispanic,Placebo,8/14/2015,Y,Visit 2,2,12/9/2015,118,Serum,Magnesium,mmol/L,1.030461804,0.62,0.99,2
01-003,1,Site 01,43,F,Hispanic,Placebo,8/14/2015,Y,Visit 2,2,12/9/2015,118,Serum,Potassium,mmol/L,4.674740179,3.5,5,2
01-003,1,Site 01,43,F,Hispanic,Placebo,8/14/2015,Y,Visit 2,2,12/9/2015,118,Serum,Sodium,mmol/L,140.0619616,136,145,2
01-003,1,Site 01,43,F,Hispanic,Placebo,8/14/2015,Y,Visit 2,2,12/9/2015,118,Serum,Total Bilirubin,µmol/L,11.48736807,5.1,20.5,2
01-003,1,Site 01,43,F,Hispanic,Placebo,8/14/2015,Y,Visit 2,2,12/9/2015,118,Vital Signs,Diastolic Blood Pressure,mmHg,,60,80,2
01-003,1,Site 01,43,F,Hispanic,Placebo,8/14/2015,Y,Visit 2,2,12/9/2015,118,Vital Signs,Heart Rate,beats/minute,60.21559379,50,80,2
01-003,1,Site 01,43,F,Hispanic,Placebo,8/14/2015,Y,Visit 2,2,12/9/2015,118,Vital Signs,Respiratory Rate,breaths/minute,16.2588898,16,20,2
01-003,1,Site 01,43,F,Hispanic,Placebo,8/14/2015,Y,Visit 2,2,12/9/2015,118,Vital Signs,Systolic Blood Pressure,mmHg,83.23562732,90,120,2
01-003,1,Site 01,43,F,Hispanic,Placebo,8/14/2015,Y,Visit 2,2,12/9/2015,118,Vital Signs,Temperature,°C,36.86719141,36.6,37,2
01-003,1,Site 01,43,F,Hispanic,Placebo,8/14/2015,Y,Visit 3,3,1/28/2016,168,Blood,Platelet count,x 109/L,246.1048992,150,350,3
01-003,1,Site 01,43,F,Hispanic,Placebo,8/14/2015,Y,Visit 3,3,1/28/2016,168,Blood,RBC count,x 1012 cells/L,5.51019003,4.2,5.9,3
01-003,1,Site 01,43,F,Hispanic,Placebo,8/14/2015,Y,Visit 3,3,1/28/2016,168,Blood,WBC count,x 109 cells/L,0,4.5,11,3
01-003,1,Site 01,43,F,Hispanic,Placebo,8/14/2015,Y,Visit 3,3,1/28/2016,168,Serum,Albumin,g/L,44.58208178,35,55,3
01-003,1,Site 01,43,F,Hispanic,Placebo,8/14/2015,Y,Visit 3,3,1/28/2016,168,Serum,Alkaline phosphatase (ALP),µkat/L,,0.5,1.5,3
01-003,1,Site 01,43,F,Hispanic,Placebo,8/14/2015,Y,Visit 3,3,1/28/2016,168,Serum,"Aminotransferase, alanine (ALT)",pkat/L,0.480864529,0,0.58,3
01-003,1,Site 01,43,F,Hispanic,Placebo,8/14/2015,Y,Visit 3,3,1/28/2016,168,Serum,"Aminotransferase, aspartate (AST)",pkat/L,0,0,0.58,3
01-003,1,Site 01,43,F,Hispanic,Placebo,8/14/2015,Y,Visit 3,3,1/28/2016,168,Serum,Calcium,mmol/L,2.857909648,2.2,2.6,3
01-003,1,Site 01,43,F,Hispanic,Placebo,8/14/2015,Y,Visit 3,3,1/28/2016,168,Serum,Chloride,mmol/L,98.78702555,98,106,3
01-003,1,Site 01,43,F,Hispanic,Placebo,8/14/2015,Y,Visit 3,3,1/28/2016,168,Serum,Creatinine,µmol/L,67.89868458,61.9,115,3
01-003,1,Site 01,43,F,Hispanic,Placebo,8/14/2015,Y,Visit 3,3,1/28/2016,168,Serum,Direct Bilirubin,µmol/L,7.638243826,0,5.1,3
01-003,1,Site 01,43,F,Hispanic,Placebo,8/14/2015,Y,Visit 3,3,1/28/2016,168,Serum,IgE,mg/L,0.140702452,0.1,0.4,3
01-003,1,Site 01,43,F,Hispanic,Placebo,8/14/2015,Y,Visit 3,3,1/28/2016,168,Serum,Magnesium,mmol/L,0.648739401,0.62,0.99,3
01-003,1,Site 01,43,F,Hispanic,Placebo,8/14/2015,Y,Visit 3,3,1/28/2016,168,Serum,Potassium,mmol/L,3.531828066,3.5,5,3
01-003,1,Site 01,43,F,Hispanic,Placebo,8/14/2015,Y,Visit 3,3,1/28/2016,168,Serum,Sodium,mmol/L,,136,145,3
01-003,1,Site 01,43,F,Hispanic,Placebo,8/14/2015,Y,Visit 3,3,1/28/2016,168,Serum,Total Bilirubin,µmol/L,0,5.1,20.5,3
01-003,1,Site 01,43,F,Hispanic,Placebo,8/14/2015,Y,Visit 3,3,1/28/2016,168,Vital Signs,Diastolic Blood Pressure,mmHg,,60,80,3
01-003,1,Site 01,43,F,Hispanic,Placebo,8/14/2015,Y,Visit 3,3,1/28/2016,168,Vital Signs,Heart Rate,beats/minute,,50,80,3
01-003,1,Site 01,43,F,Hispanic,Placebo,8/14/2015,Y,Visit 3,3,1/28/2016,168,Vital Signs,Respiratory Rate,breaths/minute,14.75078043,16,20,3
01-003,1,Site 01,43,F,Hispanic,Placebo,8/14/2015,Y,Visit 3,3,1/28/2016,168,Vital Signs,Systolic Blood Pressure,mmHg,115.0622302,90,120,3
01-003,1,Site 01,43,F,Hispanic,Placebo,8/14/2015,Y,Visit 3,3,1/28/2016,168,Vital Signs,Temperature,°C,36.86287578,36.6,37,3
01-003,1,Site 01,43,F,Hispanic,Placebo,8/14/2015,Y,Visit 4,4,3/22/2016,222,Blood,Platelet count,x 109/L,119.6176264,150,350,4
01-003,1,Site 01,43,F,Hispanic,Placebo,8/14/2015,Y,Visit 4,4,3/22/2016,222,Blood,RBC count,x 1012 cells/L,5.942023062,4.2,5.9,4
01-003,1,Site 01,43,F,Hispanic,Placebo,8/14/2015,Y,Visit 4,4,3/22/2016,222,Blood,WBC count,x 109 cells/L,5.56455627,4.5,11,4
01-003,1,Site 01,43,F,Hispanic,Placebo,8/14/2015,Y,Visit 4,4,3/22/2016,222,Serum,Albumin,g/L,52.67778923,35,55,4
01-003,1,Site 01,43,F,Hispanic,Placebo,8/14/2015,Y,Visit 4,4,3/22/2016,222,Serum,Alkaline phosphatase (ALP),µkat/L,0.987422315,0.5,1.5,4
01-003,1,Site 01,43,F,Hispanic,Placebo,8/14/2015,Y,Visit 4,4,3/22/2016,222,Serum,"Aminotransferase, alanine (ALT)",pkat/L,0,0,0.58,4
01-003,1,Site 01,43,F,Hispanic,Placebo,8/14/2015,Y,Visit 4,4,3/22/2016,222,Serum,"Aminotransferase, aspartate (AST)",pkat/L,0.797254788,0,0.58,4
01-003,1,Site 01,43,F,Hispanic,Placebo,8/14/2015,Y,Visit 4,4,3/22/2016,222,Serum,Calcium,mmol/L,2.352402969,2.2,2.6,4
01-003,1,Site 01,43,F,Hispanic,Placebo,8/14/2015,Y,Visit 4,4,3/22/2016,222,Serum,Chloride,mmol/L,,98,106,4
01-003,1,Site 01,43,F,Hispanic,Placebo,8/14/2015,Y,Visit 4,4,3/22/2016,222,Serum,Creatinine,µmol/L,47.40564493,61.9,115,4
01-003,1,Site 01,43,F,Hispanic,Placebo,8/14/2015,Y,Visit 4,4,3/22/2016,222,Serum,Direct Bilirubin,µmol/L,0,0,5.1,4
01-003,1,Site 01,43,F,Hispanic,Placebo,8/14/2015,Y,Visit 4,4,3/22/2016,222,Serum,IgE,mg/L,0.329641625,0.1,0.4,4
01-003,1,Site 01,43,F,Hispanic,Placebo,8/14/2015,Y,Visit 4,4,3/22/2016,222,Serum,Magnesium,mmol/L,0.907780848,0.62,0.99,4
01-003,1,Site 01,43,F,Hispanic,Placebo,8/14/2015,Y,Visit 4,4,3/22/2016,222,Serum,Potassium,mmol/L,3.688065731,3.5,5,4
01-003,1,Site 01,43,F,Hispanic,Placebo,8/14/2015,Y,Visit 4,4,3/22/2016,222,Serum,Sodium,mmol/L,141.2866725,136,145,4
01-003,1,Site 01,43,F,Hispanic,Placebo,8/14/2015,Y,Visit 4,4,3/22/2016,222,Serum,Total Bilirubin,µmol/L,,5.1,20.5,4
01-003,1,Site 01,43,F,Hispanic,Placebo,8/14/2015,Y,Visit 4,4,3/22/2016,222,Vital Signs,Diastolic Blood Pressure,mmHg,75.30385237,60,80,4
01-003,1,Site 01,43,F,Hispanic,Placebo,8/14/2015,Y,Visit 4,4,3/22/2016,222,Vital Signs,Heart Rate,beats/minute,47.9497039,50,80,4
01-003,1,Site 01,43,F,Hispanic,Placebo,8/14/2015,Y,Visit 4,4,3/22/2016,222,Vital Signs,Respiratory Rate,breaths/minute,15.94171998,16,20,4
01-003,1,Site 01,43,F,Hispanic,Placebo,8/14/2015,Y,Visit 4,4,3/22/2016,222,Vital Signs,Systolic Blood Pressure,mmHg,,90,120,4
01-003,1,Site 01,43,F,Hispanic,Placebo,8/14/2015,Y,Visit 4,4,3/22/2016,222,Vital Signs,Temperature,°C,37.02054789,36.6,37,4
01-003,1,Site 01,43,F,Hispanic,Placebo,8/14/2015,Y,Visit 5,5,5/17/2016,278,Blood,Platelet count,x 109/L,264.7399199,150,350,5
01-003,1,Site 01,43,F,Hispanic,Placebo,8/14/2015,Y,Visit 5,5,5/17/2016,278,Blood,RBC count,x 1012 cells/L,6.314544538,4.2,5.9,5
01-003,1,Site 01,43,F,Hispanic,Placebo,8/14/2015,Y,Visit 5,5,5/17/2016,278,Blood,WBC count,x 109 cells/L,,4.5,11,5
01-003,1,Site 01,43,F,Hispanic,Placebo,8/14/2015,Y,Visit 5,5,5/17/2016,278,Serum,Albumin,g/L,41.52703312,35,55,5
01-003,1,Site 01,43,F,Hispanic,Placebo,8/14/2015,Y,Visit 5,5,5/17/2016,278,Serum,Alkaline phosphatase (ALP),µkat/L,1.425825505,0.5,1.5,5
01-003,1,Site 01,43,F,Hispanic,Placebo,8/14/2015,Y,Visit 5,5,5/17/2016,278,Serum,"Aminotransferase, alanine (ALT)",pkat/L,0.088939097,0,0.58,5
01-003,1,Site 01,43,F,Hispanic,Placebo,8/14/2015,Y,Visit 5,5,5/17/2016,278,Serum,"Aminotransferase, aspartate (AST)",pkat/L,0,0,0.58,5
01-003,1,Site 01,43,F,Hispanic,Placebo,8/14/2015,Y,Visit 5,5,5/17/2016,278,Serum,Calcium,mmol/L,1.996147567,2.2,2.6,5
01-003,1,Site 01,43,F,Hispanic,Placebo,8/14/2015,Y,Visit 5,5,5/17/2016,278,Serum,Chloride,mmol/L,,98,106,5
01-003,1,Site 01,43,F,Hispanic,Placebo,8/14/2015,Y,Visit 5,5,5/17/2016,278,Serum,Creatinine,µmol/L,58.36909339,61.9,115,5
01-003,1,Site 01,43,F,Hispanic,Placebo,8/14/2015,Y,Visit 5,5,5/17/2016,278,Serum,Direct Bilirubin,µmol/L,0.173061045,0,5.1,5
01-003,1,Site 01,43,F,Hispanic,Placebo,8/14/2015,Y,Visit 5,5,5/17/2016,278,Serum,IgE,mg/L,0.314668582,0.1,0.4,5
01-003,1,Site 01,43,F,Hispanic,Placebo,8/14/2015,Y,Visit 5,5,5/17/2016,278,Serum,Magnesium,mmol/L,0.766427967,0.62,0.99,5
01-003,1,Site 01,43,F,Hispanic,Placebo,8/14/2015,Y,Visit 5,5,5/17/2016,278,Serum,Potassium,mmol/L,,3.5,5,5
01-003,1,Site 01,43,F,Hispanic,Placebo,8/14/2015,Y,Visit 5,5,5/17/2016,278,Serum,Sodium,mmol/L,136.33944,136,145,5
01-003,1,Site 01,43,F,Hispanic,Placebo,8/14/2015,Y,Visit 5,5,5/17/2016,278,Serum,Total Bilirubin,µmol/L,13.84751346,5.1,20.5,5
01-003,1,Site 01,43,F,Hispanic,Placebo,8/14/2015,Y,Visit 5,5,5/17/2016,278,Vital Signs,Diastolic Blood Pressure,mmHg,67.94369326,60,80,5
01-003,1,Site 01,43,F,Hispanic,Placebo,8/14/2015,Y,Visit 5,5,5/17/2016,278,Vital Signs,Heart Rate,beats/minute,62.31117989,50,80,5
01-003,1,Site 01,43,F,Hispanic,Placebo,8/14/2015,Y,Visit 5,5,5/17/2016,278,Vital Signs,Respiratory Rate,breaths/minute,18.72955911,16,20,5
01-003,1,Site 01,43,F,Hispanic,Placebo,8/14/2015,Y,Visit 5,5,5/17/2016,278,Vital Signs,Systolic Blood Pressure,mmHg,,90,120,5
01-003,1,Site 01,43,F,Hispanic,Placebo,8/14/2015,Y,Visit 5,5,5/17/2016,278,Vital Signs,Temperature,°C,36.74234173,36.6,37,5
01-003,1,Site 01,43,F,Hispanic,Placebo,8/14/2015,Y,Visit 6,6,7/14/2016,336,Blood,Platelet count,x 109/L,267.6502316,150,350,6
01-003,1,Site 01,43,F,Hispanic,Placebo,8/14/2015,Y,Visit 6,6,7/14/2016,336,Blood,RBC count,x 1012 cells/L,,4.2,5.9,6
01-003,1,Site 01,43,F,Hispanic,Placebo,8/14/2015,Y,Visit 6,6,7/14/2016,336,Blood,WBC count,x 109 cells/L,11.19694839,4.5,11,6
01-003,1,Site 01,43,F,Hispanic,Placebo,8/14/2015,Y,Visit 6,6,7/14/2016,336,Serum,Albumin,g/L,28.53334073,35,55,6
01-003,1,Site 01,43,F,Hispanic,Placebo,8/14/2015,Y,Visit 6,6,7/14/2016,336,Serum,Alkaline phosphatase (ALP),µkat/L,1.028963475,0.5,1.5,6
01-003,1,Site 01,43,F,Hispanic,Placebo,8/14/2015,Y,Visit 6,6,7/14/2016,336,Serum,"Aminotransferase, alanine (ALT)",pkat/L,,0,0.58,6
01-003,1,Site 01,43,F,Hispanic,Placebo,8/14/2015,Y,Visit 6,6,7/14/2016,336,Serum,"Aminotransferase, aspartate (AST)",pkat/L,0.31597561,0,0.58,6
01-003,1,Site 01,43,F,Hispanic,Placebo,8/14/2015,Y,Visit 6,6,7/14/2016,336,Serum,Calcium,mmol/L,,2.2,2.6,6
01-003,1,Site 01,43,F,Hispanic,Placebo,8/14/2015,Y,Visit 6,6,7/14/2016,336,Serum,Chloride,mmol/L,100.8844756,98,106,6
01-003,1,Site 01,43,F,Hispanic,Placebo,8/14/2015,Y,Visit 6,6,7/14/2016,336,Serum,Creatinine,µmol/L,95.56951882,61.9,115,6
01-003,1,Site 01,43,F,Hispanic,Placebo,8/14/2015,Y,Visit 6,6,7/14/2016,336,Serum,Direct Bilirubin,µmol/L,2.78210377,0,5.1,6
01-003,1,Site 01,43,F,Hispanic,Placebo,8/14/2015,Y,Visit 6,6,7/14/2016,336,Serum,IgE,mg/L,0.112381093,0.1,0.4,6
01-003,1,Site 01,43,F,Hispanic,Placebo,8/14/2015,Y,Visit 6,6,7/14/2016,336,Serum,Magnesium,mmol/L,,0.62,0.99,6
01-003,1,Site 01,43,F,Hispanic,Placebo,8/14/2015,Y,Visit 6,6,7/14/2016,336,Serum,Potassium,mmol/L,3.718279362,3.5,5,6
01-003,1,Site 01,43,F,Hispanic,Placebo,8/14/2015,Y,Visit 6,6,7/14/2016,336,Serum,Sodium,mmol/L,137.6967656,136,145,6
01-003,1,Site 01,43,F,Hispanic,Placebo,8/14/2015,Y,Visit 6,6,7/14/2016,336,Serum,Total Bilirubin,µmol/L,27.34641434,5.1,20.5,6
01-003,1,Site 01,43,F,Hispanic,Placebo,8/14/2015,Y,Visit 6,6,7/14/2016,336,Vital Signs,Diastolic Blood Pressure,mmHg,,60,80,6
01-003,1,Site 01,43,F,Hispanic,Placebo,8/14/2015,Y,Visit 6,6,7/14/2016,336,Vital Signs,Heart Rate,beats/minute,,50,80,6
01-003,1,Site 01,43,F,Hispanic,Placebo,8/14/2015,Y,Visit 6,6,7/14/2016,336,Vital Signs,Respiratory Rate,breaths/minute,19.78693984,16,20,6
01-003,1,Site 01,43,F,Hispanic,Placebo,8/14/2015,Y,Visit 6,6,7/14/2016,336,Vital Signs,Systolic Blood Pressure,mmHg,95.28150143,90,120,6
01-003,1,Site 01,43,F,Hispanic,Placebo,8/14/2015,Y,Visit 6,6,7/14/2016,336,Vital Signs,Temperature,°C,36.74241143,36.6,37,6
01-003,1,Site 01,43,F,Hispanic,Placebo,8/14/2015,Y,End of Study,7,8/19/2016,372,Blood,Platelet count,x 109/L,113.6865219,150,350,7
01-003,1,Site 01,43,F,Hispanic,Placebo,8/14/2015,Y,End of Study,7,8/19/2016,372,Blood,RBC count,x 1012 cells/L,5.429918753,4.2,5.9,7
01-003,1,Site 01,43,F,Hispanic,Placebo,8/14/2015,Y,End of Study,7,8/19/2016,372,Blood,WBC count,x 109 cells/L,8.145329315,4.5,11,7
01-003,1,Site 01,43,F,Hispanic,Placebo,8/14/2015,Y,End of Study,7,8/19/2016,372,Serum,Albumin,g/L,76.76218925,35,55,7
01-003,1,Site 01,43,F,Hispanic,Placebo,8/14/2015,Y,End of Study,7,8/19/2016,372,Serum,Alkaline phosphatase (ALP),µkat/L,0.424775811,0.5,1.5,7
01-003,1,Site 01,43,F,Hispanic,Placebo,8/14/2015,Y,End of Study,7,8/19/2016,372,Serum,"Aminotransferase, alanine (ALT)",pkat/L,0.258432642,0,0.58,7
01-003,1,Site 01,43,F,Hispanic,Placebo,8/14/2015,Y,End of Study,7,8/19/2016,372,Serum,"Aminotransferase, aspartate (AST)",pkat/L,0.478588678,0,0.58,7
01-003,1,Site 01,43,F,Hispanic,Placebo,8/14/2015,Y,End of Study,7,8/19/2016,372,Serum,Calcium,mmol/L,2.118395049,2.2,2.6,7
01-003,1,Site 01,43,F,Hispanic,Placebo,8/14/2015,Y,End of Study,7,8/19/2016,372,Serum,Chloride,mmol/L,,98,106,7
01-003,1,Site 01,43,F,Hispanic,Placebo,8/14/2015,Y,End of Study,7,8/19/2016,372,Serum,Creatinine,µmol/L,91.9480657,61.9,115,7
01-003,1,Site 01,43,F,Hispanic,Placebo,8/14/2015,Y,End of Study,7,8/19/2016,372,Serum,Direct Bilirubin,µmol/L,,0,5.1,7
01-003,1,Site 01,43,F,Hispanic,Placebo,8/14/2015,Y,End of Study,7,8/19/2016,372,Serum,IgE,mg/L,0.344809626,0.1,0.4,7
01-003,1,Site 01,43,F,Hispanic,Placebo,8/14/2015,Y,End of Study,7,8/19/2016,372,Serum,Magnesium,mmol/L,1.060979684,0.62,0.99,7
01-003,1,Site 01,43,F,Hispanic,Placebo,8/14/2015,Y,End of Study,7,8/19/2016,372,Serum,Potassium,mmol/L,4.424559907,3.5,5,7
01-003,1,Site 01,43,F,Hispanic,Placebo,8/14/2015,Y,End of Study,7,8/19/2016,372,Serum,Sodium,mmol/L,145.8508595,136,145,7
01-003,1,Site 01,43,F,Hispanic,Placebo,8/14/2015,Y,End of Study,7,8/19/2016,372,Serum,Total Bilirubin,µmol/L,17.65822773,5.1,20.5,7
01-003,1,Site 01,43,F,Hispanic,Placebo,8/14/2015,Y,End of Study,7,8/19/2016,372,Vital Signs,Diastolic Blood Pressure,mmHg,72.09535625,60,80,7
01-003,1,Site 01,43,F,Hispanic,Placebo,8/14/2015,Y,End of Study,7,8/19/2016,372,Vital Signs,Heart Rate,beats/minute,64.11714568,50,80,7
01-003,1,Site 01,43,F,Hispanic,Placebo,8/14/2015,Y,End of Study,7,8/19/2016,372,Vital Signs,Respiratory Rate,breaths/minute,20.60579825,16,20,7
01-003,1,Site 01,43,F,Hispanic,Placebo,8/14/2015,Y,End of Study,7,8/19/2016,372,Vital Signs,Systolic Blood Pressure,mmHg,98.29032267,90,120,7
01-003,1,Site 01,43,F,Hispanic,Placebo,8/14/2015,Y,End of Study,7,8/19/2016,372,Vital Signs,Temperature,°C,36.69763937,36.6,37,7
01-004,1,Site 01,42,F,Hispanic,Placebo,1/13/2015,Y,Screening,0,1/13/2015,1,Blood,Platelet count,x 109/L,116.4353487,150,350,0
01-004,1,Site 01,42,F,Hispanic,Placebo,1/13/2015,Y,Screening,0,1/13/2015,1,Blood,RBC count,x 1012 cells/L,4.20297457,4.2,5.9,0
01-004,1,Site 01,42,F,Hispanic,Placebo,1/13/2015,Y,Screening,0,1/13/2015,1,Blood,WBC count,x 109 cells/L,10.88215209,4.5,11,0
01-004,1,Site 01,42,F,Hispanic,Placebo,1/13/2015,Y,Screening,0,1/13/2015,1,Serum,Albumin,g/L,56.33471943,35,55,0
01-004,1,Site 01,42,F,Hispanic,Placebo,1/13/2015,Y,Screening,0,1/13/2015,1,Serum,Alkaline phosphatase (ALP),µkat/L,,0.5,1.5,0
01-004,1,Site 01,42,F,Hispanic,Placebo,1/13/2015,Y,Screening,0,1/13/2015,1,Serum,"Aminotransferase, alanine (ALT)",pkat/L,0.262900992,0,0.58,0
01-004,1,Site 01,42,F,Hispanic,Placebo,1/13/2015,Y,Screening,0,1/13/2015,1,Serum,"Aminotransferase, aspartate (AST)",pkat/L,0.177212991,0,0.58,0
01-004,1,Site 01,42,F,Hispanic,Placebo,1/13/2015,Y,Screening,0,1/13/2015,1,Serum,Calcium,mmol/L,2.678308259,2.2,2.6,0
01-004,1,Site 01,42,F,Hispanic,Placebo,1/13/2015,Y,Screening,0,1/13/2015,1,Serum,Chloride,mmol/L,102.0932061,98,106,0
01-004,1,Site 01,42,F,Hispanic,Placebo,1/13/2015,Y,Screening,0,1/13/2015,1,Serum,Creatinine,µmol/L,108.5053542,61.9,115,0
01-004,1,Site 01,42,F,Hispanic,Placebo,1/13/2015,Y,Screening,0,1/13/2015,1,Serum,Direct Bilirubin,µmol/L,,0,5.1,0
01-004,1,Site 01,42,F,Hispanic,Placebo,1/13/2015,Y,Screening,0,1/13/2015,1,Serum,IgE,mg/L,0.32188892,0.1,0.4,0
01-004,1,Site 01,42,F,Hispanic,Placebo,1/13/2015,Y,Screening,0,1/13/2015,1,Serum,Magnesium,mmol/L,0.778934472,0.62,0.99,0
01-004,1,Site 01,42,F,Hispanic,Placebo,1/13/2015,Y,Screening,0,1/13/2015,1,Serum,Potassium,mmol/L,4.358312435,3.5,5,0
01-004,1,Site 01,42,F,Hispanic,Placebo,1/13/2015,Y,Screening,0,1/13/2015,1,Serum,Sodium,mmol/L,143.6176523,136,145,0
01-004,1,Site 01,42,F,Hispanic,Placebo,1/13/2015,Y,Screening,0,1/13/2015,1,Serum,Total Bilirubin,µmol/L,20.08688608,5.1,20.5,0
01-004,1,Site 01,42,F,Hispanic,Placebo,1/13/2015,Y,Screening,0,1/13/2015,1,Vital Signs,Diastolic Blood Pressure,mmHg,84.82207531,60,80,0
01-004,1,Site 01,42,F,Hispanic,Placebo,1/13/2015,Y,Screening,0,1/13/2015,1,Vital Signs,Heart Rate,beats/minute,51.41566969,50,80,0
01-004,1,Site 01,42,F,Hispanic,Placebo,1/13/2015,Y,Screening,0,1/13/2015,1,Vital Signs,Respiratory Rate,breaths/minute,17.30386684,16,20,0
01-004,1,Site 01,42,F,Hispanic,Placebo,1/13/2015,Y,Screening,0,1/13/2015,1,Vital Signs,Systolic Blood Pressure,mmHg,85.26489087,90,120,0
01-004,1,Site 01,42,F,Hispanic,Placebo,1/13/2015,Y,Screening,0,1/13/2015,1,Vital Signs,Temperature,°C,36.61824774,36.6,37,0
01-004,1,Site 01,42,F,Hispanic,Placebo,1/13/2015,Y,Visit 1,1,3/3/2015,50,Blood,Platelet count,x 109/L,267.9823509,150,350,1
01-004,1,Site 01,42,F,Hispanic,Placebo,1/13/2015,Y,Visit 1,1,3/3/2015,50,Blood,RBC count,x 1012 cells/L,4.260656653,4.2,5.9,1
01-004,1,Site 01,42,F,Hispanic,Placebo,1/13/2015,Y,Visit 1,1,3/3/2015,50,Blood,WBC count,x 109 cells/L,7.217853372,4.5,11,1
01-004,1,Site 01,42,F,Hispanic,Placebo,1/13/2015,Y,Visit 1,1,3/3/2015,50,Serum,Albumin,g/L,54.42475432,35,55,1
01-004,1,Site 01,42,F,Hispanic,Placebo,1/13/2015,Y,Visit 1,1,3/3/2015,50,Serum,Alkaline phosphatase (ALP),µkat/L,0.459285738,0.5,1.5,1
01-004,1,Site 01,42,F,Hispanic,Placebo,1/13/2015,Y,Visit 1,1,3/3/2015,50,Serum,"Aminotransferase, alanine (ALT)",pkat/L,0.462110713,0,0.58,1
01-004,1,Site 01,42,F,Hispanic,Placebo,1/13/2015,Y,Visit 1,1,3/3/2015,50,Serum,"Aminotransferase, aspartate (AST)",pkat/L,0,0,0.58,1
01-004,1,Site 01,42,F,Hispanic,Placebo,1/13/2015,Y,Visit 1,1,3/3/2015,50,Serum,Calcium,mmol/L,2.076136877,2.2,2.6,1
01-004,1,Site 01,42,F,Hispanic,Placebo,1/13/2015,Y,Visit 1,1,3/3/2015,50,Serum,Chloride,mmol/L,,98,106,1
01-004,1,Site 01,42,F,Hispanic,Placebo,1/13/2015,Y,Visit 1,1,3/3/2015,50,Serum,Creatinine,µmol/L,94.3817999,61.9,115,1
01-004,1,Site 01,42,F,Hispanic,Placebo,1/13/2015,Y,Visit 1,1,3/3/2015,50,Serum,Direct Bilirubin,µmol/L,0,0,5.1,1
01-004,1,Site 01,42,F,Hispanic,Placebo,1/13/2015,Y,Visit 1,1,3/3/2015,50,Serum,IgE,mg/L,0.267635758,0.1,0.4,1
01-004,1,Site 01,42,F,Hispanic,Placebo,1/13/2015,Y,Visit 1,1,3/3/2015,50,Serum,Magnesium,mmol/L,0.80990914,0.62,0.99,1
01-004,1,Site 01,42,F,Hispanic,Placebo,1/13/2015,Y,Visit 1,1,3/3/2015,50,Serum,Potassium,mmol/L,4.747010633,3.5,5,1
01-004,1,Site 01,42,F,Hispanic,Placebo,1/13/2015,Y,Visit 1,1,3/3/2015,50,Serum,Sodium,mmol/L,140.5729878,136,145,1
01-004,1,Site 01,42,F,Hispanic,Placebo,1/13/2015,Y,Visit 1,1,3/3/2015,50,Serum,Total Bilirubin,µmol/L,7.90717312,5.1,20.5,1
01-004,1,Site 01,42,F,Hispanic,Placebo,1/13/2015,Y,Visit 1,1,3/3/2015,50,Vital Signs,Diastolic Blood Pressure,mmHg,64.67304218,60,80,1
01-004,1,Site 01,42,F,Hispanic,Placebo,1/13/2015,Y,Visit 1,1,3/3/2015,50,Vital Signs,Heart Rate,beats/minute,69.67839227,50,80,1
01-004,1,Site 01,42,F,Hispanic,Placebo,1/13/2015,Y,Visit 1,1,3/3/2015,50,Vital Signs,Respiratory Rate,breaths/minute,17.5924066,16,20,1
01-004,1,Site 01,42,F,Hispanic,Placebo,1/13/2015,Y,Visit 1,1,3/3/2015,50,Vital Signs,Systolic Blood Pressure,mmHg,70.47332189,90,120,1
01-004,1,Site 01,42,F,Hispanic,Placebo,1/13/2015,Y,Visit 1,1,3/3/2015,50,Vital Signs,Temperature,°C,37.23400171,36.6,37,1
01-004,1,Site 01,42,F,Hispanic,Placebo,1/13/2015,Y,Visit 2,2,5/1/2015,109,Blood,Platelet count,x 109/L,374.791608,150,350,2
01-004,1,Site 01,42,F,Hispanic,Placebo,1/13/2015,Y,Visit 2,2,5/1/2015,109,Blood,RBC count,x 1012 cells/L,6.8442558,4.2,5.9,2
01-004,1,Site 01,42,F,Hispanic,Placebo,1/13/2015,Y,Visit 2,2,5/1/2015,109,Blood,WBC count,x 109 cells/L,5.552236965,4.5,11,2
01-004,1,Site 01,42,F,Hispanic,Placebo,1/13/2015,Y,Visit 2,2,5/1/2015,109,Serum,Albumin,g/L,35.82390563,35,55,2
01-004,1,Site 01,42,F,Hispanic,Placebo,1/13/2015,Y,Visit 2,2,5/1/2015,109,Serum,Alkaline phosphatase (ALP),µkat/L,1.705665989,0.5,1.5,2
01-004,1,Site 01,42,F,Hispanic,Placebo,1/13/2015,Y,Visit 2,2,5/1/2015,109,Serum,"Aminotransferase, alanine (ALT)",pkat/L,0.144609845,0,0.58,2
01-004,1,Site 01,42,F,Hispanic,Placebo,1/13/2015,Y,Visit 2,2,5/1/2015,109,Serum,"Aminotransferase, aspartate (AST)",pkat/L,0.276862184,0,0.58,2
01-004,1,Site 01,42,F,Hispanic,Placebo,1/13/2015,Y,Visit 2,2,5/1/2015,109,Serum,Calcium,mmol/L,2.272377164,2.2,2.6,2
01-004,1,Site 01,42,F,Hispanic,Placebo,1/13/2015,Y,Visit 2,2,5/1/2015,109,Serum,Chloride,mmol/L,97.19746313,98,106,2
01-004,1,Site 01,42,F,Hispanic,Placebo,1/13/2015,Y,Visit 2,2,5/1/2015,109,Serum,Creatinine,µmol/L,89.07074396,61.9,115,2
01-004,1,Site 01,42,F,Hispanic,Placebo,1/13/2015,Y,Visit 2,2,5/1/2015,109,Serum,Direct Bilirubin,µmol/L,4.96095025,0,5.1,2
01-004,1,Site 01,42,F,Hispanic,Placebo,1/13/2015,Y,Visit 2,2,5/1/2015,109,Serum,IgE,mg/L,,0.1,0.4,2
01-004,1,Site 01,42,F,Hispanic,Placebo,1/13/2015,Y,Visit 2,2,5/1/2015,109,Serum,Magnesium,mmol/L,0.695836699,0.62,0.99,2
01-004,1,Site 01,42,F,Hispanic,Placebo,1/13/2015,Y,Visit 2,2,5/1/2015,109,Serum,Potassium,mmol/L,3.378290654,3.5,5,2
01-004,1,Site 01,42,F,Hispanic,Placebo,1/13/2015,Y,Visit 2,2,5/1/2015,109,Serum,Sodium,mmol/L,140.8005096,136,145,2
01-004,1,Site 01,42,F,Hispanic,Placebo,1/13/2015,Y,Visit 2,2,5/1/2015,109,Serum,Total Bilirubin,µmol/L,16.51500615,5.1,20.5,2
01-004,1,Site 01,42,F,Hispanic,Placebo,1/13/2015,Y,Visit 2,2,5/1/2015,109,Vital Signs,Diastolic Blood Pressure,mmHg,,60,80,2
01-004,1,Site 01,42,F,Hispanic,Placebo,1/13/2015,Y,Visit 2,2,5/1/2015,109,Vital Signs,Heart Rate,beats/minute,51.58690131,50,80,2
01-004,1,Site 01,42,F,Hispanic,Placebo,1/13/2015,Y,Visit 2,2,5/1/2015,109,Vital Signs,Respiratory Rate,breaths/minute,,16,20,2
01-004,1,Site 01,42,F,Hispanic,Placebo,1/13/2015,Y,Visit 2,2,5/1/2015,109,Vital Signs,Systolic Blood Pressure,mmHg,90.25542061,90,120,2
01-004,1,Site 01,42,F,Hispanic,Placebo,1/13/2015,Y,Visit 2,2,5/1/2015,109,Vital Signs,Temperature,°C,36.44782505,36.6,37,2
01-004,1,Site 01,42,F,Hispanic,Placebo,1/13/2015,Y,Visit 3,3,6/25/2015,164,Blood,Platelet count,x 109/L,234.2136511,150,350,3
01-004,1,Site 01,42,F,Hispanic,Placebo,1/13/2015,Y,Visit 3,3,6/25/2015,164,Blood,RBC count,x 1012 cells/L,3.400863225,4.2,5.9,3
01-004,1,Site 01,42,F,Hispanic,Placebo,1/13/2015,Y,Visit 3,3,6/25/2015,164,Blood,WBC count,x 109 cells/L,7.811389714,4.5,11,3
01-004,1,Site 01,42,F,Hispanic,Placebo,1/13/2015,Y,Visit 3,3,6/25/2015,164,Serum,Albumin,g/L,52.83162736,35,55,3
01-004,1,Site 01,42,F,Hispanic,Placebo,1/13/2015,Y,Visit 3,3,6/25/2015,164,Serum,Alkaline phosphatase (ALP),µkat/L,0.670520718,0.5,1.5,3
01-004,1,Site 01,42,F,Hispanic,Placebo,1/13/2015,Y,Visit 3,3,6/25/2015,164,Serum,"Aminotransferase, alanine (ALT)",pkat/L,0.202102539,0,0.58,3
01-004,1,Site 01,42,F,Hispanic,Placebo,1/13/2015,Y,Visit 3,3,6/25/2015,164,Serum,"Aminotransferase, aspartate (AST)",pkat/L,0.53415014,0,0.58,3
01-004,1,Site 01,42,F,Hispanic,Placebo,1/13/2015,Y,Visit 3,3,6/25/2015,164,Serum,Calcium,mmol/L,2.604752076,2.2,2.6,3
01-004,1,Site 01,42,F,Hispanic,Placebo,1/13/2015,Y,Visit 3,3,6/25/2015,164,Serum,Chloride,mmol/L,103.6073705,98,106,3
01-004,1,Site 01,42,F,Hispanic,Placebo,1/13/2015,Y,Visit 3,3,6/25/2015,164,Serum,Creatinine,µmol/L,81.2771165,61.9,115,3
01-004,1,Site 01,42,F,Hispanic,Placebo,1/13/2015,Y,Visit 3,3,6/25/2015,164,Serum,Direct Bilirubin,µmol/L,7.907474967,0,5.1,3
01-004,1,Site 01,42,F,Hispanic,Placebo,1/13/2015,Y,Visit 3,3,6/25/2015,164,Serum,IgE,mg/L,0.239658791,0.1,0.4,3
01-004,1,Site 01,42,F,Hispanic,Placebo,1/13/2015,Y,Visit 3,3,6/25/2015,164,Serum,Magnesium,mmol/L,0.738644308,0.62,0.99,3
01-004,1,Site 01,42,F,Hispanic,Placebo,1/13/2015,Y,Visit 3,3,6/25/2015,164,Serum,Potassium,mmol/L,4.950243814,3.5,5,3
01-004,1,Site 01,42,F,Hispanic,Placebo,1/13/2015,Y,Visit 3,3,6/25/2015,164,Serum,Sodium,mmol/L,,136,145,3
01-004,1,Site 01,42,F,Hispanic,Placebo,1/13/2015,Y,Visit 3,3,6/25/2015,164,Serum,Total Bilirubin,µmol/L,0,5.1,20.5,3
01-004,1,Site 01,42,F,Hispanic,Placebo,1/13/2015,Y,Visit 3,3,6/25/2015,164,Vital Signs,Diastolic Blood Pressure,mmHg,,60,80,3
01-004,1,Site 01,42,F,Hispanic,Placebo,1/13/2015,Y,Visit 3,3,6/25/2015,164,Vital Signs,Heart Rate,beats/minute,,50,80,3
01-004,1,Site 01,42,F,Hispanic,Placebo,1/13/2015,Y,Visit 3,3,6/25/2015,164,Vital Signs,Respiratory Rate,breaths/minute,16.98296933,16,20,3
01-004,1,Site 01,42,F,Hispanic,Placebo,1/13/2015,Y,Visit 3,3,6/25/2015,164,Vital Signs,Systolic Blood Pressure,mmHg,96.9445121,90,120,3
01-004,1,Site 01,42,F,Hispanic,Placebo,1/13/2015,Y,Visit 3,3,6/25/2015,164,Vital Signs,Temperature,°C,36.57616553,36.6,37,3
01-004,1,Site 01,42,F,Hispanic,Placebo,1/13/2015,Y,Visit 4,4,8/18/2015,218,Blood,Platelet count,x 109/L,238.3089436,150,350,4
01-004,1,Site 01,42,F,Hispanic,Placebo,1/13/2015,Y,Visit 4,4,8/18/2015,218,Blood,RBC count,x 1012 cells/L,5.273475297,4.2,5.9,4
01-004,1,Site 01,42,F,Hispanic,Placebo,1/13/2015,Y,Visit 4,4,8/18/2015,218,Blood,WBC count,x 109 cells/L,7.119579098,4.5,11,4
01-004,1,Site 01,42,F,Hispanic,Placebo,1/13/2015,Y,Visit 4,4,8/18/2015,218,Serum,Albumin,g/L,53.12406295,35,55,4
01-004,1,Site 01,42,F,Hispanic,Placebo,1/13/2015,Y,Visit 4,4,8/18/2015,218,Serum,Alkaline phosphatase (ALP),µkat/L,1.214558256,0.5,1.5,4
01-004,1,Site 01,42,F,Hispanic,Placebo,1/13/2015,Y,Visit 4,4,8/18/2015,218,Serum,"Aminotransferase, alanine (ALT)",pkat/L,0.126134712,0,0.58,4
01-004,1,Site 01,42,F,Hispanic,Placebo,1/13/2015,Y,Visit 4,4,8/18/2015,218,Serum,"Aminotransferase, aspartate (AST)",pkat/L,0,0,0.58,4
01-004,1,Site 01,42,F,Hispanic,Placebo,1/13/2015,Y,Visit 4,4,8/18/2015,218,Serum,Calcium,mmol/L,2.586735674,2.2,2.6,4
01-004,1,Site 01,42,F,Hispanic,Placebo,1/13/2015,Y,Visit 4,4,8/18/2015,218,Serum,Chloride,mmol/L,99.8579317,98,106,4
01-004,1,Site 01,42,F,Hispanic,Placebo,1/13/2015,Y,Visit 4,4,8/18/2015,218,Serum,Creatinine,µmol/L,48.84523376,61.9,115,4
01-004,1,Site 01,42,F,Hispanic,Placebo,1/13/2015,Y,Visit 4,4,8/18/2015,218,Serum,Direct Bilirubin,µmol/L,0,0,5.1,4
01-004,1,Site 01,42,F,Hispanic,Placebo,1/13/2015,Y,Visit 4,4,8/18/2015,218,Serum,IgE,mg/L,0.251759179,0.1,0.4,4
01-004,1,Site 01,42,F,Hispanic,Placebo,1/13/2015,Y,Visit 4,4,8/18/2015,218,Serum,Magnesium,mmol/L,0.736836695,0.62,0.99,4
01-004,1,Site 01,42,F,Hispanic,Placebo,1/13/2015,Y,Visit 4,4,8/18/2015,218,Serum,Potassium,mmol/L,3.642178549,3.5,5,4
01-004,1,Site 01,42,F,Hispanic,Placebo,1/13/2015,Y,Visit 4,4,8/18/2015,218,Serum,Sodium,mmol/L,141.2844061,136,145,4
01-004,1,Site 01,42,F,Hispanic,Placebo,1/13/2015,Y,Visit 4,4,8/18/2015,218,Serum,Total Bilirubin,µmol/L,,5.1,20.5,4
01-004,1,Site 01,42,F,Hispanic,Placebo,1/13/2015,Y,Visit 4,4,8/18/2015,218,Vital Signs,Diastolic Blood Pressure,mmHg,72.9707286,60,80,4
01-004,1,Site 01,42,F,Hispanic,Placebo,1/13/2015,Y,Visit 4,4,8/18/2015,218,Vital Signs,Heart Rate,beats/minute,86.35046228,50,80,4
01-004,1,Site 01,42,F,Hispanic,Placebo,1/13/2015,Y,Visit 4,4,8/18/2015,218,Vital Signs,Respiratory Rate,breaths/minute,16.7332971,16,20,4
01-004,1,Site 01,42,F,Hispanic,Placebo,1/13/2015,Y,Visit 4,4,8/18/2015,218,Vital Signs,Systolic Blood Pressure,mmHg,,90,120,4
01-004,1,Site 01,42,F,Hispanic,Placebo,1/13/2015,Y,Visit 4,4,8/18/2015,218,Vital Signs,Temperature,°C,36.83633081,36.6,37,4
01-004,1,Site 01,42,F,Hispanic,Placebo,1/13/2015,Y,Visit 5,5,10/19/2015,280,Blood,Platelet count,x 109/L,0,150,350,5
01-004,1,Site 01,42,F,Hispanic,Placebo,1/13/2015,Y,Visit 5,5,10/19/2015,280,Blood,RBC count,x 1012 cells/L,5.212006488,4.2,5.9,5
01-004,1,Site 01,42,F,Hispanic,Placebo,1/13/2015,Y,Visit 5,5,10/19/2015,280,Blood,WBC count,x 109 cells/L,,4.5,11,5
01-004,1,Site 01,42,F,Hispanic,Placebo,1/13/2015,Y,Visit 5,5,10/19/2015,280,Serum,Albumin,g/L,54.38949456,35,55,5
01-004,1,Site 01,42,F,Hispanic,Placebo,1/13/2015,Y,Visit 5,5,10/19/2015,280,Serum,Alkaline phosphatase (ALP),µkat/L,1.65709631,0.5,1.5,5
01-004,1,Site 01,42,F,Hispanic,Placebo,1/13/2015,Y,Visit 5,5,10/19/2015,280,Serum,"Aminotransferase, alanine (ALT)",pkat/L,0.514565724,0,0.58,5
01-004,1,Site 01,42,F,Hispanic,Placebo,1/13/2015,Y,Visit 5,5,10/19/2015,280,Serum,"Aminotransferase, aspartate (AST)",pkat/L,0.477310876,0,0.58,5
01-004,1,Site 01,42,F,Hispanic,Placebo,1/13/2015,Y,Visit 5,5,10/19/2015,280,Serum,Calcium,mmol/L,2.16582844,2.2,2.6,5
01-004,1,Site 01,42,F,Hispanic,Placebo,1/13/2015,Y,Visit 5,5,10/19/2015,280,Serum,Chloride,mmol/L,103.8435977,98,106,5
01-004,1,Site 01,42,F,Hispanic,Placebo,1/13/2015,Y,Visit 5,5,10/19/2015,280,Serum,Creatinine,µmol/L,126.9015551,61.9,115,5
01-004,1,Site 01,42,F,Hispanic,Placebo,1/13/2015,Y,Visit 5,5,10/19/2015,280,Serum,Direct Bilirubin,µmol/L,4.207983737,0,5.1,5
01-004,1,Site 01,42,F,Hispanic,Placebo,1/13/2015,Y,Visit 5,5,10/19/2015,280,Serum,IgE,mg/L,0.353729219,0.1,0.4,5
01-004,1,Site 01,42,F,Hispanic,Placebo,1/13/2015,Y,Visit 5,5,10/19/2015,280,Serum,Magnesium,mmol/L,1.029158096,0.62,0.99,5
01-004,1,Site 01,42,F,Hispanic,Placebo,1/13/2015,Y,Visit 5,5,10/19/2015,280,Serum,Potassium,mmol/L,,3.5,5,5
01-004,1,Site 01,42,F,Hispanic,Placebo,1/13/2015,Y,Visit 5,5,10/19/2015,280,Serum,Sodium,mmol/L,137.1355104,136,145,5
01-004,1,Site 01,42,F,Hispanic,Placebo,1/13/2015,Y,Visit 5,5,10/19/2015,280,Serum,Total Bilirubin,µmol/L,8.971088116,5.1,20.5,5
01-004,1,Site 01,42,F,Hispanic,Placebo,1/13/2015,Y,Visit 5,5,10/19/2015,280,Vital Signs,Diastolic Blood Pressure,mmHg,82.69271271,60,80,5
01-004,1,Site 01,42,F,Hispanic,Placebo,1/13/2015,Y,Visit 5,5,10/19/2015,280,Vital Signs,Heart Rate,beats/minute,75.99492013,50,80,5
01-004,1,Site 01,42,F,Hispanic,Placebo,1/13/2015,Y,Visit 5,5,10/19/2015,280,Vital Signs,Respiratory Rate,breaths/minute,16.80719946,16,20,5
01-004,1,Site 01,42,F,Hispanic,Placebo,1/13/2015,Y,Visit 5,5,10/19/2015,280,Vital Signs,Systolic Blood Pressure,mmHg,132.7217919,90,120,5
01-004,1,Site 01,42,F,Hispanic,Placebo,1/13/2015,Y,Visit 5,5,10/19/2015,280,Vital Signs,Temperature,°C,36.84632747,36.6,37,5
01-004,1,Site 01,42,F,Hispanic,Placebo,1/13/2015,Y,Visit 6,6,12/20/2015,342,Blood,Platelet count,x 109/L,216.2845539,150,350,6
01-004,1,Site 01,42,F,Hispanic,Placebo,1/13/2015,Y,Visit 6,6,12/20/2015,342,Blood,RBC count,x 1012 cells/L,,4.2,5.9,6
01-004,1,Site 01,42,F,Hispanic,Placebo,1/13/2015,Y,Visit 6,6,12/20/2015,342,Blood,WBC count,x 109 cells/L,6.133421485,4.5,11,6
01-004,1,Site 01,42,F,Hispanic,Placebo,1/13/2015,Y,Visit 6,6,12/20/2015,342,Serum,Albumin,g/L,36.95905201,35,55,6
01-004,1,Site 01,42,F,Hispanic,Placebo,1/13/2015,Y,Visit 6,6,12/20/2015,342,Serum,Alkaline phosphatase (ALP),µkat/L,0.948999764,0.5,1.5,6
01-004,1,Site 01,42,F,Hispanic,Placebo,1/13/2015,Y,Visit 6,6,12/20/2015,342,Serum,"Aminotransferase, alanine (ALT)",pkat/L,,0,0.58,6
01-004,1,Site 01,42,F,Hispanic,Placebo,1/13/2015,Y,Visit 6,6,12/20/2015,342,Serum,"Aminotransferase, aspartate (AST)",pkat/L,0,0,0.58,6
01-004,1,Site 01,42,F,Hispanic,Placebo,1/13/2015,Y,Visit 6,6,12/20/2015,342,Serum,Calcium,mmol/L,,2.2,2.6,6
01-004,1,Site 01,42,F,Hispanic,Placebo,1/13/2015,Y,Visit 6,6,12/20/2015,342,Serum,Chloride,mmol/L,97.61239356,98,106,6
01-004,1,Site 01,42,F,Hispanic,Placebo,1/13/2015,Y,Visit 6,6,12/20/2015,342,Serum,Creatinine,µmol/L,90.50090832,61.9,115,6
01-004,1,Site 01,42,F,Hispanic,Placebo,1/13/2015,Y,Visit 6,6,12/20/2015,342,Serum,Direct Bilirubin,µmol/L,4.31271965,0,5.1,6
01-004,1,Site 01,42,F,Hispanic,Placebo,1/13/2015,Y,Visit 6,6,12/20/2015,342,Serum,IgE,mg/L,0.276693684,0.1,0.4,6
01-004,1,Site 01,42,F,Hispanic,Placebo,1/13/2015,Y,Visit 6,6,12/20/2015,342,Serum,Magnesium,mmol/L,,0.62,0.99,6
01-004,1,Site 01,42,F,Hispanic,Placebo,1/13/2015,Y,Visit 6,6,12/20/2015,342,Serum,Potassium,mmol/L,4.3337365,3.5,5,6
01-004,1,Site 01,42,F,Hispanic,Placebo,1/13/2015,Y,Visit 6,6,12/20/2015,342,Serum,Sodium,mmol/L,150.349003,136,145,6
01-004,1,Site 01,42,F,Hispanic,Placebo,1/13/2015,Y,Visit 6,6,12/20/2015,342,Serum,Total Bilirubin,µmol/L,0,5.1,20.5,6
01-004,1,Site 01,42,F,Hispanic,Placebo,1/13/2015,Y,Visit 6,6,12/20/2015,342,Vital Signs,Diastolic Blood Pressure,mmHg,83.88356883,60,80,6
01-004,1,Site 01,42,F,Hispanic,Placebo,1/13/2015,Y,Visit 6,6,12/20/2015,342,Vital Signs,Heart Rate,beats/minute,55.71468015,50,80,6
01-004,1,Site 01,42,F,Hispanic,Placebo,1/13/2015,Y,Visit 6,6,12/20/2015,342,Vital Signs,Respiratory Rate,breaths/minute,22.26486278,16,20,6
01-004,1,Site 01,42,F,Hispanic,Placebo,1/13/2015,Y,Visit 6,6,12/20/2015,342,Vital Signs,Systolic Blood Pressure,mmHg,113.624043,90,120,6
01-004,1,Site 01,42,F,Hispanic,Placebo,1/13/2015,Y,Visit 6,6,12/20/2015,342,Vital Signs,Temperature,°C,36.72757077,36.6,37,6
01-004,1,Site 01,42,F,Hispanic,Placebo,1/13/2015,Y,End of Study,7,1/6/2016,359,Blood,Platelet count,x 109/L,258.5128906,150,350,7
01-004,1,Site 01,42,F,Hispanic,Placebo,1/13/2015,Y,End of Study,7,1/6/2016,359,Blood,RBC count,x 1012 cells/L,3.696855172,4.2,5.9,7
01-004,1,Site 01,42,F,Hispanic,Placebo,1/13/2015,Y,End of Study,7,1/6/2016,359,Blood,WBC count,x 109 cells/L,0,4.5,11,7
01-004,1,Site 01,42,F,Hispanic,Placebo,1/13/2015,Y,End of Study,7,1/6/2016,359,Serum,Albumin,g/L,46.65920315,35,55,7
01-004,1,Site 01,42,F,Hispanic,Placebo,1/13/2015,Y,End of Study,7,1/6/2016,359,Serum,Alkaline phosphatase (ALP),µkat/L,0.464565574,0.5,1.5,7
01-004,1,Site 01,42,F,Hispanic,Placebo,1/13/2015,Y,End of Study,7,1/6/2016,359,Serum,"Aminotransferase, alanine (ALT)",pkat/L,0.56462263,0,0.58,7
01-004,1,Site 01,42,F,Hispanic,Placebo,1/13/2015,Y,End of Study,7,1/6/2016,359,Serum,"Aminotransferase, aspartate (AST)",pkat/L,0.422034523,0,0.58,7
01-004,1,Site 01,42,F,Hispanic,Placebo,1/13/2015,Y,End of Study,7,1/6/2016,359,Serum,Calcium,mmol/L,2.422648123,2.2,2.6,7
01-004,1,Site 01,42,F,Hispanic,Placebo,1/13/2015,Y,End of Study,7,1/6/2016,359,Serum,Chloride,mmol/L,,98,106,7
01-004,1,Site 01,42,F,Hispanic,Placebo,1/13/2015,Y,End of Study,7,1/6/2016,359,Serum,Creatinine,µmol/L,86.85371719,61.9,115,7
01-004,1,Site 01,42,F,Hispanic,Placebo,1/13/2015,Y,End of Study,7,1/6/2016,359,Serum,Direct Bilirubin,µmol/L,,0,5.1,7
01-004,1,Site 01,42,F,Hispanic,Placebo,1/13/2015,Y,End of Study,7,1/6/2016,359,Serum,IgE,mg/L,,0.1,0.4,7
01-004,1,Site 01,42,F,Hispanic,Placebo,1/13/2015,Y,End of Study,7,1/6/2016,359,Serum,Magnesium,mmol/L,1.265669474,0.62,0.99,7
01-004,1,Site 01,42,F,Hispanic,Placebo,1/13/2015,Y,End of Study,7,1/6/2016,359,Serum,Potassium,mmol/L,3.626450069,3.5,5,7
01-004,1,Site 01,42,F,Hispanic,Placebo,1/13/2015,Y,End of Study,7,1/6/2016,359,Serum,Sodium,mmol/L,133.2897524,136,145,7
01-004,1,Site 01,42,F,Hispanic,Placebo,1/13/2015,Y,End of Study,7,1/6/2016,359,Serum,Total Bilirubin,µmol/L,11.77457098,5.1,20.5,7
01-004,1,Site 01,42,F,Hispanic,Placebo,1/13/2015,Y,End of Study,7,1/6/2016,359,Vital Signs,Diastolic Blood Pressure,mmHg,61.41411463,60,80,7
01-004,1,Site 01,42,F,Hispanic,Placebo,1/13/2015,Y,End of Study,7,1/6/2016,359,Vital Signs,Heart Rate,beats/minute,41.35528606,50,80,7
01-004,1,Site 01,42,F,Hispanic,Placebo,1/13/2015,Y,End of Study,7,1/6/2016,359,Vital Signs,Respiratory Rate,breaths/minute,15.43654478,16,20,7
01-004,1,Site 01,42,F,Hispanic,Placebo,1/13/2015,Y,End of Study,7,1/6/2016,359,Vital Signs,Systolic Blood Pressure,mmHg,84.0513374,90,120,7
01-004,1,Site 01,42,F,Hispanic,Placebo,1/13/2015,Y,End of Study,7,1/6/2016,359,Vital Signs,Temperature,°C,36.71938626,36.6,37,7
01-005,1,Site 01,30,M,White,Treatment B,12/27/2015,Y,Screening,0,12/27/2015,1,Blood,Platelet count,x 109/L,431.4702912,150,350,0
01-005,1,Site 01,30,M,White,Treatment B,12/27/2015,Y,Screening,0,12/27/2015,1,Blood,RBC count,x 1012 cells/L,5.893808302,4.2,5.9,0
01-005,1,Site 01,30,M,White,Treatment B,12/27/2015,Y,Screening,0,12/27/2015,1,Blood,WBC count,x 109 cells/L,9.873740721,4.5,11,0
01-005,1,Site 01,30,M,White,Treatment B,12/27/2015,Y,Screening,0,12/27/2015,1,Serum,Albumin,g/L,31.92248069,35,55,0
01-005,1,Site 01,30,M,White,Treatment B,12/27/2015,Y,Screening,0,12/27/2015,1,Serum,Alkaline phosphatase (ALP),µkat/L,,0.5,1.5,0
01-005,1,Site 01,30,M,White,Treatment B,12/27/2015,Y,Screening,0,12/27/2015,1,Serum,"Aminotransferase, alanine (ALT)",pkat/L,0,0,0.58,0
01-005,1,Site 01,30,M,White,Treatment B,12/27/2015,Y,Screening,0,12/27/2015,1,Serum,"Aminotransferase, aspartate (AST)",pkat/L,,0,0.58,0
01-005,1,Site 01,30,M,White,Treatment B,12/27/2015,Y,Screening,0,12/27/2015,1,Serum,Calcium,mmol/L,2.478542867,2.2,2.6,0
01-005,1,Site 01,30,M,White,Treatment B,12/27/2015,Y,Screening,0,12/27/2015,1,Serum,Chloride,mmol/L,103.7082665,98,106,0
01-005,1,Site 01,30,M,White,Treatment B,12/27/2015,Y,Screening,0,12/27/2015,1,Serum,Creatinine,µmol/L,99.13177938,61.9,115,0
01-005,1,Site 01,30,M,White,Treatment B,12/27/2015,Y,Screening,0,12/27/2015,1,Serum,Direct Bilirubin,µmol/L,1.166269123,0,5.1,0
01-005,1,Site 01,30,M,White,Treatment B,12/27/2015,Y,Screening,0,12/27/2015,1,Serum,IgE,mg/L,0.018409805,0.1,0.4,0
01-005,1,Site 01,30,M,White,Treatment B,12/27/2015,Y,Screening,0,12/27/2015,1,Serum,Magnesium,mmol/L,0.966975365,0.62,0.99,0
01-005,1,Site 01,30,M,White,Treatment B,12/27/2015,Y,Screening,0,12/27/2015,1,Serum,Potassium,mmol/L,3.883228224,3.5,5,0
01-005,1,Site 01,30,M,White,Treatment B,12/27/2015,Y,Screening,0,12/27/2015,1,Serum,Sodium,mmol/L,145.5150802,136,145,0
01-005,1,Site 01,30,M,White,Treatment B,12/27/2015,Y,Screening,0,12/27/2015,1,Serum,Total Bilirubin,µmol/L,12.02017222,5.1,20.5,0
01-005,1,Site 01,30,M,White,Treatment B,12/27/2015,Y,Screening,0,12/27/2015,1,Vital Signs,Diastolic Blood Pressure,mmHg,61.77031651,60,80,0
01-005,1,Site 01,30,M,White,Treatment B,12/27/2015,Y,Screening,0,12/27/2015,1,Vital Signs,Heart Rate,beats/minute,53.02530369,50,80,0
01-005,1,Site 01,30,M,White,Treatment B,12/27/2015,Y,Screening,0,12/27/2015,1,Vital Signs,Respiratory Rate,breaths/minute,15.26197128,16,20,0
01-005,1,Site 01,30,M,White,Treatment B,12/27/2015,Y,Screening,0,12/27/2015,1,Vital Signs,Systolic Blood Pressure,mmHg,120.3363916,90,120,0
01-005,1,Site 01,30,M,White,Treatment B,12/27/2015,Y,Screening,0,12/27/2015,1,Vital Signs,Temperature,°C,36.48997256,36.6,37,0
01-005,1,Site 01,30,M,White,Treatment B,12/27/2015,Y,Visit 1,1,2/16/2016,52,Blood,Platelet count,x 109/L,212.2124173,150,350,1
01-005,1,Site 01,30,M,White,Treatment B,12/27/2015,Y,Visit 1,1,2/16/2016,52,Blood,RBC count,x 1012 cells/L,6.776431842,4.2,5.9,1
01-005,1,Site 01,30,M,White,Treatment B,12/27/2015,Y,Visit 1,1,2/16/2016,52,Blood,WBC count,x 109 cells/L,0,4.5,11,1
01-005,1,Site 01,30,M,White,Treatment B,12/27/2015,Y,Visit 1,1,2/16/2016,52,Serum,Albumin,g/L,62.77048967,35,55,1
01-005,1,Site 01,30,M,White,Treatment B,12/27/2015,Y,Visit 1,1,2/16/2016,52,Serum,Alkaline phosphatase (ALP),µkat/L,1.129175075,0.5,1.5,1
01-005,1,Site 01,30,M,White,Treatment B,12/27/2015,Y,Visit 1,1,2/16/2016,52,Serum,"Aminotransferase, alanine (ALT)",pkat/L,0.05296448,0,0.58,1
01-005,1,Site 01,30,M,White,Treatment B,12/27/2015,Y,Visit 1,1,2/16/2016,52,Serum,"Aminotransferase, aspartate (AST)",pkat/L,0.212785525,0,0.58,1
01-005,1,Site 01,30,M,White,Treatment B,12/27/2015,Y,Visit 1,1,2/16/2016,52,Serum,Calcium,mmol/L,2.489380147,2.2,2.6,1
01-005,1,Site 01,30,M,White,Treatment B,12/27/2015,Y,Visit 1,1,2/16/2016,52,Serum,Chloride,mmol/L,,98,106,1
01-005,1,Site 01,30,M,White,Treatment B,12/27/2015,Y,Visit 1,1,2/16/2016,52,Serum,Creatinine,µmol/L,156.5627887,61.9,115,1
01-005,1,Site 01,30,M,White,Treatment B,12/27/2015,Y,Visit 1,1,2/16/2016,52,Serum,Direct Bilirubin,µmol/L,7.939670174,0,5.1,1
01-005,1,Site 01,30,M,White,Treatment B,12/27/2015,Y,Visit 1,1,2/16/2016,52,Serum,IgE,mg/L,0.319070862,0.1,0.4,1
01-005,1,Site 01,30,M,White,Treatment B,12/27/2015,Y,Visit 1,1,2/16/2016,52,Serum,Magnesium,mmol/L,0.624746316,0.62,0.99,1
01-005,1,Site 01,30,M,White,Treatment B,12/27/2015,Y,Visit 1,1,2/16/2016,52,Serum,Potassium,mmol/L,5.050736885,3.5,5,1
01-005,1,Site 01,30,M,White,Treatment B,12/27/2015,Y,Visit 1,1,2/16/2016,52,Serum,Sodium,mmol/L,142.2076688,136,145,1
01-005,1,Site 01,30,M,White,Treatment B,12/27/2015,Y,Visit 1,1,2/16/2016,52,Serum,Total Bilirubin,µmol/L,9.958007594,5.1,20.5,1
01-005,1,Site 01,30,M,White,Treatment B,12/27/2015,Y,Visit 1,1,2/16/2016,52,Vital Signs,Diastolic Blood Pressure,mmHg,76.25126859,60,80,1
01-005,1,Site 01,30,M,White,Treatment B,12/27/2015,Y,Visit 1,1,2/16/2016,52,Vital Signs,Heart Rate,beats/minute,67.05260847,50,80,1
01-005,1,Site 01,30,M,White,Treatment B,12/27/2015,Y,Visit 1,1,2/16/2016,52,Vital Signs,Respiratory Rate,breaths/minute,16.09145104,16,20,1
01-005,1,Site 01,30,M,White,Treatment B,12/27/2015,Y,Visit 1,1,2/16/2016,52,Vital Signs,Systolic Blood Pressure,mmHg,87.19764766,90,120,1
01-005,1,Site 01,30,M,White,Treatment B,12/27/2015,Y,Visit 1,1,2/16/2016,52,Vital Signs,Temperature,°C,36.75957512,36.6,37,1
01-005,1,Site 01,30,M,White,Treatment B,12/27/2015,Y,Visit 2,2,4/9/2016,105,Blood,Platelet count,x 109/L,193.2647435,150,350,2
01-005,1,Site 01,30,M,White,Treatment B,12/27/2015,Y,Visit 2,2,4/9/2016,105,Blood,RBC count,x 1012 cells/L,5.402561487,4.2,5.9,2
01-005,1,Site 01,30,M,White,Treatment B,12/27/2015,Y,Visit 2,2,4/9/2016,105,Blood,WBC count,x 109 cells/L,7.413312297,4.5,11,2
01-005,1,Site 01,30,M,White,Treatment B,12/27/2015,Y,Visit 2,2,4/9/2016,105,Serum,Albumin,g/L,41.77012333,35,55,2
01-005,1,Site 01,30,M,White,Treatment B,12/27/2015,Y,Visit 2,2,4/9/2016,105,Serum,Alkaline phosphatase (ALP),µkat/L,0.743069708,0.5,1.5,2
01-005,1,Site 01,30,M,White,Treatment B,12/27/2015,Y,Visit 2,2,4/9/2016,105,Serum,"Aminotransferase, alanine (ALT)",pkat/L,0,0,0.58,2
01-005,1,Site 01,30,M,White,Treatment B,12/27/2015,Y,Visit 2,2,4/9/2016,105,Serum,"Aminotransferase, aspartate (AST)",pkat/L,0.864532232,0,0.58,2
01-005,1,Site 01,30,M,White,Treatment B,12/27/2015,Y,Visit 2,2,4/9/2016,105,Serum,Calcium,mmol/L,2.526423864,2.2,2.6,2
01-005,1,Site 01,30,M,White,Treatment B,12/27/2015,Y,Visit 2,2,4/9/2016,105,Serum,Chloride,mmol/L,102.894196,98,106,2
01-005,1,Site 01,30,M,White,Treatment B,12/27/2015,Y,Visit 2,2,4/9/2016,105,Serum,Creatinine,µmol/L,107.717021,61.9,115,2
01-005,1,Site 01,30,M,White,Treatment B,12/27/2015,Y,Visit 2,2,4/9/2016,105,Serum,Direct Bilirubin,µmol/L,2.529238311,0,5.1,2
01-005,1,Site 01,30,M,White,Treatment B,12/27/2015,Y,Visit 2,2,4/9/2016,105,Serum,IgE,mg/L,0.089202478,0.1,0.4,2
01-005,1,Site 01,30,M,White,Treatment B,12/27/2015,Y,Visit 2,2,4/9/2016,105,Serum,Magnesium,mmol/L,0.749093468,0.62,0.99,2
01-005,1,Site 01,30,M,White,Treatment B,12/27/2015,Y,Visit 2,2,4/9/2016,105,Serum,Potassium,mmol/L,4.161485023,3.5,5,2
01-005,1,Site 01,30,M,White,Treatment B,12/27/2015,Y,Visit 2,2,4/9/2016,105,Serum,Sodium,mmol/L,146.8185055,136,145,2
01-005,1,Site 01,30,M,White,Treatment B,12/27/2015,Y,Visit 2,2,4/9/2016,105,Serum,Total Bilirubin,µmol/L,10.18932851,5.1,20.5,2
01-005,1,Site 01,30,M,White,Treatment B,12/27/2015,Y,Visit 2,2,4/9/2016,105,Vital Signs,Diastolic Blood Pressure,mmHg,,60,80,2
01-005,1,Site 01,30,M,White,Treatment B,12/27/2015,Y,Visit 2,2,4/9/2016,105,Vital Signs,Heart Rate,beats/minute,55.2396896,50,80,2
01-005,1,Site 01,30,M,White,Treatment B,12/27/2015,Y,Visit 2,2,4/9/2016,105,Vital Signs,Respiratory Rate,breaths/minute,18.57182956,16,20,2
01-005,1,Site 01,30,M,White,Treatment B,12/27/2015,Y,Visit 2,2,4/9/2016,105,Vital Signs,Systolic Blood Pressure,mmHg,114.4324961,90,120,2
01-005,1,Site 01,30,M,White,Treatment B,12/27/2015,Y,Visit 2,2,4/9/2016,105,Vital Signs,Temperature,°C,36.79904465,36.6,37,2
01-005,1,Site 01,30,M,White,Treatment B,12/27/2015,Y,Unscheduled 2.1,2.1,4/17/2016,113,Blood,Platelet count,x 109/L,,150,350,2.1
01-005,1,Site 01,30,M,White,Treatment B,12/27/2015,Y,Unscheduled 2.1,2.1,4/17/2016,113,Blood,RBC count,x 1012 cells/L,,4.2,5.9,2.1
01-005,1,Site 01,30,M,White,Treatment B,12/27/2015,Y,Unscheduled 2.1,2.1,4/17/2016,113,Blood,WBC count,x 109 cells/L,1.105306298,4.5,11,2.1
01-005,1,Site 01,30,M,White,Treatment B,12/27/2015,Y,Unscheduled 2.1,2.1,4/17/2016,113,Serum,Albumin,g/L,34.06956968,35,55,2.1
01-005,1,Site 01,30,M,White,Treatment B,12/27/2015,Y,Unscheduled 2.1,2.1,4/17/2016,113,Serum,Alkaline phosphatase (ALP),µkat/L,0.883680297,0.5,1.5,2.1
01-005,1,Site 01,30,M,White,Treatment B,12/27/2015,Y,Unscheduled 2.1,2.1,4/17/2016,113,Serum,"Aminotransferase, alanine (ALT)",pkat/L,,0,0.58,2.1
01-005,1,Site 01,30,M,White,Treatment B,12/27/2015,Y,Unscheduled 2.1,2.1,4/17/2016,113,Serum,"Aminotransferase, aspartate (AST)",pkat/L,0,0,0.58,2.1
01-005,1,Site 01,30,M,White,Treatment B,12/27/2015,Y,Unscheduled 2.1,2.1,4/17/2016,113,Serum,Calcium,mmol/L,2.699921654,2.2,2.6,2.1
01-005,1,Site 01,30,M,White,Treatment B,12/27/2015,Y,Unscheduled 2.1,2.1,4/17/2016,113,Serum,Chloride,mmol/L,104.7857262,98,106,2.1
01-005,1,Site 01,30,M,White,Treatment B,12/27/2015,Y,Unscheduled 2.1,2.1,4/17/2016,113,Serum,Creatinine,µmol/L,104.9263168,61.9,115,2.1
01-005,1,Site 01,30,M,White,Treatment B,12/27/2015,Y,Unscheduled 2.1,2.1,4/17/2016,113,Serum,Direct Bilirubin,µmol/L,2.060661244,0,5.1,2.1
01-005,1,Site 01,30,M,White,Treatment B,12/27/2015,Y,Unscheduled 2.1,2.1,4/17/2016,113,Serum,IgE,mg/L,0.242184965,0.1,0.4,2.1
01-005,1,Site 01,30,M,White,Treatment B,12/27/2015,Y,Unscheduled 2.1,2.1,4/17/2016,113,Serum,Magnesium,mmol/L,0.69314975,0.62,0.99,2.1
01-005,1,Site 01,30,M,White,Treatment B,12/27/2015,Y,Unscheduled 2.1,2.1,4/17/2016,113,Serum,Potassium,mmol/L,4.197918928,3.5,5,2.1
01-005,1,Site 01,30,M,White,Treatment B,12/27/2015,Y,Unscheduled 2.1,2.1,4/17/2016,113,Serum,Sodium,mmol/L,138.764498,136,145,2.1
01-005,1,Site 01,30,M,White,Treatment B,12/27/2015,Y,Unscheduled 2.1,2.1,4/17/2016,113,Serum,Total Bilirubin,µmol/L,9.085310509,5.1,20.5,2.1
01-005,1,Site 01,30,M,White,Treatment B,12/27/2015,Y,Unscheduled 2.1,2.1,4/17/2016,113,Vital Signs,Diastolic Blood Pressure,mmHg,69.77787282,60,80,2.1
01-005,1,Site 01,30,M,White,Treatment B,12/27/2015,Y,Unscheduled 2.1,2.1,4/17/2016,113,Vital Signs,Heart Rate,beats/minute,73.01217554,50,80,2.1
01-005,1,Site 01,30,M,White,Treatment B,12/27/2015,Y,Unscheduled 2.1,2.1,4/17/2016,113,Vital Signs,Respiratory Rate,breaths/minute,19.31869018,16,20,2.1
01-005,1,Site 01,30,M,White,Treatment B,12/27/2015,Y,Unscheduled 2.1,2.1,4/17/2016,113,Vital Signs,Systolic Blood Pressure,mmHg,94.87766371,90,120,2.1
01-005,1,Site 01,30,M,White,Treatment B,12/27/2015,Y,Unscheduled 2.1,2.1,4/17/2016,113,Vital Signs,Temperature,°C,36.56651665,36.6,37,2.1
01-005,1,Site 01,30,M,White,Treatment B,12/27/2015,Y,Visit 3,3,6/8/2016,165,Blood,Platelet count,x 109/L,410.7138675,150,350,3
01-005,1,Site 01,30,M,White,Treatment B,12/27/2015,Y,Visit 3,3,6/8/2016,165,Blood,RBC count,x 1012 cells/L,5.863602138,4.2,5.9,3
01-005,1,Site 01,30,M,White,Treatment B,12/27/2015,Y,Visit 3,3,6/8/2016,165,Blood,WBC count,x 109 cells/L,6.808496667,4.5,11,3
01-005,1,Site 01,30,M,White,Treatment B,12/27/2015,Y,Visit 3,3,6/8/2016,165,Serum,Albumin,g/L,67.75391006,35,55,3
01-005,1,Site 01,30,M,White,Treatment B,12/27/2015,Y,Visit 3,3,6/8/2016,165,Serum,Alkaline phosphatase (ALP),µkat/L,0.57059647,0.5,1.5,3
01-005,1,Site 01,30,M,White,Treatment B,12/27/2015,Y,Visit 3,3,6/8/2016,165,Serum,"Aminotransferase, alanine (ALT)",pkat/L,0.385025255,0,0.58,3
01-005,1,Site 01,30,M,White,Treatment B,12/27/2015,Y,Visit 3,3,6/8/2016,165,Serum,"Aminotransferase, aspartate (AST)",pkat/L,0.420814254,0,0.58,3
01-005,1,Site 01,30,M,White,Treatment B,12/27/2015,Y,Visit 3,3,6/8/2016,165,Serum,Calcium,mmol/L,2.169162959,2.2,2.6,3
01-005,1,Site 01,30,M,White,Treatment B,12/27/2015,Y,Visit 3,3,6/8/2016,165,Serum,Chloride,mmol/L,105.3914555,98,106,3
01-005,1,Site 01,30,M,White,Treatment B,12/27/2015,Y,Visit 3,3,6/8/2016,165,Serum,Creatinine,µmol/L,77.82280682,61.9,115,3
01-005,1,Site 01,30,M,White,Treatment B,12/27/2015,Y,Visit 3,3,6/8/2016,165,Serum,Direct Bilirubin,µmol/L,6.953008615,0,5.1,3
01-005,1,Site 01,30,M,White,Treatment B,12/27/2015,Y,Visit 3,3,6/8/2016,165,Serum,IgE,mg/L,0.207513431,0.1,0.4,3
01-005,1,Site 01,30,M,White,Treatment B,12/27/2015,Y,Visit 3,3,6/8/2016,165,Serum,Magnesium,mmol/L,0.884502726,0.62,0.99,3
01-005,1,Site 01,30,M,White,Treatment B,12/27/2015,Y,Visit 3,3,6/8/2016,165,Serum,Potassium,mmol/L,3.987873868,3.5,5,3
01-005,1,Site 01,30,M,White,Treatment B,12/27/2015,Y,Visit 3,3,6/8/2016,165,Serum,Sodium,mmol/L,,136,145,3
01-005,1,Site 01,30,M,White,Treatment B,12/27/2015,Y,Visit 3,3,6/8/2016,165,Serum,Total Bilirubin,µmol/L,16.27207281,5.1,20.5,3
01-005,1,Site 01,30,M,White,Treatment B,12/27/2015,Y,Visit 3,3,6/8/2016,165,Vital Signs,Diastolic Blood Pressure,mmHg,,60,80,3
01-005,1,Site 01,30,M,White,Treatment B,12/27/2015,Y,Visit 3,3,6/8/2016,165,Vital Signs,Heart Rate,beats/minute,,50,80,3
01-005,1,Site 01,30,M,White,Treatment B,12/27/2015,Y,Visit 3,3,6/8/2016,165,Vital Signs,Respiratory Rate,breaths/minute,18.78309877,16,20,3
01-005,1,Site 01,30,M,White,Treatment B,12/27/2015,Y,Visit 3,3,6/8/2016,165,Vital Signs,Systolic Blood Pressure,mmHg,112.5843863,90,120,3
01-005,1,Site 01,30,M,White,Treatment B,12/27/2015,Y,Visit 3,3,6/8/2016,165,Vital Signs,Temperature,°C,37.06937337,36.6,37,3
01-005,1,Site 01,30,M,White,Treatment B,12/27/2015,Y,Visit 4,4,7/31/2016,218,Blood,Platelet count,x 109/L,101.9024318,150,350,4
01-005,1,Site 01,30,M,White,Treatment B,12/27/2015,Y,Visit 4,4,7/31/2016,218,Blood,RBC count,x 1012 cells/L,5.734757611,4.2,5.9,4
01-005,1,Site 01,30,M,White,Treatment B,12/27/2015,Y,Visit 4,4,7/31/2016,218,Blood,WBC count,x 109 cells/L,8.656898396,4.5,11,4
01-005,1,Site 01,30,M,White,Treatment B,12/27/2015,Y,Visit 4,4,7/31/2016,218,Serum,Albumin,g/L,44.26799762,35,55,4
01-005,1,Site 01,30,M,White,Treatment B,12/27/2015,Y,Visit 4,4,7/31/2016,218,Serum,Alkaline phosphatase (ALP),µkat/L,0.594447288,0.5,1.5,4
01-005,1,Site 01,30,M,White,Treatment B,12/27/2015,Y,Visit 4,4,7/31/2016,218,Serum,"Aminotransferase, alanine (ALT)",pkat/L,0,0,0.58,4
01-005,1,Site 01,30,M,White,Treatment B,12/27/2015,Y,Visit 4,4,7/31/2016,218,Serum,"Aminotransferase, aspartate (AST)",pkat/L,0.019923326,0,0.58,4
01-005,1,Site 01,30,M,White,Treatment B,12/27/2015,Y,Visit 4,4,7/31/2016,218,Serum,Calcium,mmol/L,2.443352862,2.2,2.6,4
01-005,1,Site 01,30,M,White,Treatment B,12/27/2015,Y,Visit 4,4,7/31/2016,218,Serum,Chloride,mmol/L,100.326867,98,106,4
01-005,1,Site 01,30,M,White,Treatment B,12/27/2015,Y,Visit 4,4,7/31/2016,218,Serum,Creatinine,µmol/L,106.8420544,61.9,115,4
01-005,1,Site 01,30,M,White,Treatment B,12/27/2015,Y,Visit 4,4,7/31/2016,218,Serum,Direct Bilirubin,µmol/L,0.751279607,0,5.1,4
01-005,1,Site 01,30,M,White,Treatment B,12/27/2015,Y,Visit 4,4,7/31/2016,218,Serum,IgE,mg/L,0.246693151,0.1,0.4,4
01-005,1,Site 01,30,M,White,Treatment B,12/27/2015,Y,Visit 4,4,7/31/2016,218,Serum,Magnesium,mmol/L,0.482032557,0.62,0.99,4
01-005,1,Site 01,30,M,White,Treatment B,12/27/2015,Y,Visit 4,4,7/31/2016,218,Serum,Potassium,mmol/L,,3.5,5,4
01-005,1,Site 01,30,M,White,Treatment B,12/27/2015,Y,Visit 4,4,7/31/2016,218,Serum,Sodium,mmol/L,143.9478596,136,145,4
01-005,1,Site 01,30,M,White,Treatment B,12/27/2015,Y,Visit 4,4,7/31/2016,218,Serum,Total Bilirubin,µmol/L,,5.1,20.5,4
01-005,1,Site 01,30,M,White,Treatment B,12/27/2015,Y,Visit 4,4,7/31/2016,218,Vital Signs,Diastolic Blood Pressure,mmHg,58.484548,60,80,4
01-005,1,Site 01,30,M,White,Treatment B,12/27/2015,Y,Visit 4,4,7/31/2016,218,Vital Signs,Heart Rate,beats/minute,76.76623272,50,80,4
01-005,1,Site 01,30,M,White,Treatment B,12/27/2015,Y,Visit 4,4,7/31/2016,218,Vital Signs,Respiratory Rate,breaths/minute,17.46376697,16,20,4
01-005,1,Site 01,30,M,White,Treatment B,12/27/2015,Y,Visit 4,4,7/31/2016,218,Vital Signs,Systolic Blood Pressure,mmHg,,90,120,4
01-005,1,Site 01,30,M,White,Treatment B,12/27/2015,Y,Visit 4,4,7/31/2016,218,Vital Signs,Temperature,°C,36.92231747,36.6,37,4
01-005,1,Site 01,30,M,White,Treatment B,12/27/2015,Y,Visit 5,5,9/24/2016,273,Blood,Platelet count,x 109/L,163.6820961,150,350,5
01-005,1,Site 01,30,M,White,Treatment B,12/27/2015,Y,Visit 5,5,9/24/2016,273,Blood,RBC count,x 1012 cells/L,4.442381435,4.2,5.9,5
01-005,1,Site 01,30,M,White,Treatment B,12/27/2015,Y,Visit 5,5,9/24/2016,273,Blood,WBC count,x 109 cells/L,,4.5,11,5
01-005,1,Site 01,30,M,White,Treatment B,12/27/2015,Y,Visit 5,5,9/24/2016,273,Serum,Albumin,g/L,46.24940871,35,55,5
01-005,1,Site 01,30,M,White,Treatment B,12/27/2015,Y,Visit 5,5,9/24/2016,273,Serum,Alkaline phosphatase (ALP),µkat/L,1.821760166,0.5,1.5,5
01-005,1,Site 01,30,M,White,Treatment B,12/27/2015,Y,Visit 5,5,9/24/2016,273,Serum,"Aminotransferase, alanine (ALT)",pkat/L,0.311294824,0,0.58,5
01-005,1,Site 01,30,M,White,Treatment B,12/27/2015,Y,Visit 5,5,9/24/2016,273,Serum,"Aminotransferase, aspartate (AST)",pkat/L,0.388562676,0,0.58,5
01-005,1,Site 01,30,M,White,Treatment B,12/27/2015,Y,Visit 5,5,9/24/2016,273,Serum,Calcium,mmol/L,2.203745306,2.2,2.6,5
01-005,1,Site 01,30,M,White,Treatment B,12/27/2015,Y,Visit 5,5,9/24/2016,273,Serum,Chloride,mmol/L,103.045394,98,106,5
01-005,1,Site 01,30,M,White,Treatment B,12/27/2015,Y,Visit 5,5,9/24/2016,273,Serum,Creatinine,µmol/L,117.8972656,61.9,115,5
01-005,1,Site 01,30,M,White,Treatment B,12/27/2015,Y,Visit 5,5,9/24/2016,273,Serum,Direct Bilirubin,µmol/L,0.8521847,0,5.1,5
01-005,1,Site 01,30,M,White,Treatment B,12/27/2015,Y,Visit 5,5,9/24/2016,273,Serum,IgE,mg/L,0.482628531,0.1,0.4,5
01-005,1,Site 01,30,M,White,Treatment B,12/27/2015,Y,Visit 5,5,9/24/2016,273,Serum,Magnesium,mmol/L,0.51979718,0.62,0.99,5
01-005,1,Site 01,30,M,White,Treatment B,12/27/2015,Y,Visit 5,5,9/24/2016,273,Serum,Potassium,mmol/L,,3.5,5,5
01-005,1,Site 01,30,M,White,Treatment B,12/27/2015,Y,Visit 5,5,9/24/2016,273,Serum,Sodium,mmol/L,141.5344533,136,145,5
01-005,1,Site 01,30,M,White,Treatment B,12/27/2015,Y,Visit 5,5,9/24/2016,273,Serum,Total Bilirubin,µmol/L,14.02079216,5.1,20.5,5
01-005,1,Site 01,30,M,White,Treatment B,12/27/2015,Y,Visit 5,5,9/24/2016,273,Vital Signs,Diastolic Blood Pressure,mmHg,64.84597329,60,80,5
01-005,1,Site 01,30,M,White,Treatment B,12/27/2015,Y,Visit 5,5,9/24/2016,273,Vital Signs,Heart Rate,beats/minute,58.47655999,50,80,5
01-005,1,Site 01,30,M,White,Treatment B,12/27/2015,Y,Visit 5,5,9/24/2016,273,Vital Signs,Respiratory Rate,breaths/minute,20.58697788,16,20,5
01-005,1,Site 01,30,M,White,Treatment B,12/27/2015,Y,Visit 5,5,9/24/2016,273,Vital Signs,Systolic Blood Pressure,mmHg,116.7202522,90,120,5
01-005,1,Site 01,30,M,White,Treatment B,12/27/2015,Y,Visit 5,5,9/24/2016,273,Vital Signs,Temperature,°C,36.90848163,36.6,37,5
01-005,1,Site 01,30,M,White,Treatment B,12/27/2015,Y,Visit 6,6,11/28/2016,338,Blood,Platelet count,x 109/L,376.3976818,150,350,6
01-005,1,Site 01,30,M,White,Treatment B,12/27/2015,Y,Visit 6,6,11/28/2016,338,Blood,RBC count,x 1012 cells/L,,4.2,5.9,6
01-005,1,Site 01,30,M,White,Treatment B,12/27/2015,Y,Visit 6,6,11/28/2016,338,Blood,WBC count,x 109 cells/L,8.885237194,4.5,11,6
01-005,1,Site 01,30,M,White,Treatment B,12/27/2015,Y,Visit 6,6,11/28/2016,338,Serum,Albumin,g/L,52.23729845,35,55,6
01-005,1,Site 01,30,M,White,Treatment B,12/27/2015,Y,Visit 6,6,11/28/2016,338,Serum,Alkaline phosphatase (ALP),µkat/L,1.428895072,0.5,1.5,6
01-005,1,Site 01,30,M,White,Treatment B,12/27/2015,Y,Visit 6,6,11/28/2016,338,Serum,"Aminotransferase, alanine (ALT)",pkat/L,,0,0.58,6
01-005,1,Site 01,30,M,White,Treatment B,12/27/2015,Y,Visit 6,6,11/28/2016,338,Serum,"Aminotransferase, aspartate (AST)",pkat/L,0.548886614,0,0.58,6
01-005,1,Site 01,30,M,White,Treatment B,12/27/2015,Y,Visit 6,6,11/28/2016,338,Serum,Calcium,mmol/L,,2.2,2.6,6
01-005,1,Site 01,30,M,White,Treatment B,12/27/2015,Y,Visit 6,6,11/28/2016,338,Serum,Chloride,mmol/L,106.6032982,98,106,6
01-005,1,Site 01,30,M,White,Treatment B,12/27/2015,Y,Visit 6,6,11/28/2016,338,Serum,Creatinine,µmol/L,69.06434245,61.9,115,6
01-005,1,Site 01,30,M,White,Treatment B,12/27/2015,Y,Visit 6,6,11/28/2016,338,Serum,Direct Bilirubin,µmol/L,2.435925424,0,5.1,6
01-005,1,Site 01,30,M,White,Treatment B,12/27/2015,Y,Visit 6,6,11/28/2016,338,Serum,IgE,mg/L,0.256154268,0.1,0.4,6
01-005,1,Site 01,30,M,White,Treatment B,12/27/2015,Y,Visit 6,6,11/28/2016,338,Serum,Magnesium,mmol/L,,0.62,0.99,6
01-005,1,Site 01,30,M,White,Treatment B,12/27/2015,Y,Visit 6,6,11/28/2016,338,Serum,Potassium,mmol/L,5.176111803,3.5,5,6
01-005,1,Site 01,30,M,White,Treatment B,12/27/2015,Y,Visit 6,6,11/28/2016,338,Serum,Sodium,mmol/L,142.7247295,136,145,6
01-005,1,Site 01,30,M,White,Treatment B,12/27/2015,Y,Visit 6,6,11/28/2016,338,Serum,Total Bilirubin,µmol/L,20.57899947,5.1,20.5,6
01-005,1,Site 01,30,M,White,Treatment B,12/27/2015,Y,Visit 6,6,11/28/2016,338,Vital Signs,Diastolic Blood Pressure,mmHg,59.50373333,60,80,6
01-005,1,Site 01,30,M,White,Treatment B,12/27/2015,Y,Visit 6,6,11/28/2016,338,Vital Signs,Heart Rate,beats/minute,53.13960122,50,80,6
01-005,1,Site 01,30,M,White,Treatment B,12/27/2015,Y,Visit 6,6,11/28/2016,338,Vital Signs,Respiratory Rate,breaths/minute,15.13252105,16,20,6
01-005,1,Site 01,30,M,White,Treatment B,12/27/2015,Y,Visit 6,6,11/28/2016,338,Vital Signs,Systolic Blood Pressure,mmHg,98.2069915,90,120,6
01-005,1,Site 01,30,M,White,Treatment B,12/27/2015,Y,Visit 6,6,11/28/2016,338,Vital Signs,Temperature,°C,36.78208269,36.6,37,6
01-005,1,Site 01,30,M,White,Treatment B,12/27/2015,Y,End of Study,7,1/3/2017,374,Blood,Platelet count,x 109/L,180.9257803,150,350,7
01-005,1,Site 01,30,M,White,Treatment B,12/27/2015,Y,End of Study,7,1/3/2017,374,Blood,RBC count,x 1012 cells/L,4.93054193,4.2,5.9,7
01-005,1,Site 01,30,M,White,Treatment B,12/27/2015,Y,End of Study,7,1/3/2017,374,Blood,WBC count,x 109 cells/L,8.798241373,4.5,11,7
01-005,1,Site 01,30,M,White,Treatment B,12/27/2015,Y,End of Study,7,1/3/2017,374,Serum,Albumin,g/L,28.63447839,35,55,7
01-005,1,Site 01,30,M,White,Treatment B,12/27/2015,Y,End of Study,7,1/3/2017,374,Serum,Alkaline phosphatase (ALP),µkat/L,1.090575214,0.5,1.5,7
01-005,1,Site 01,30,M,White,Treatment B,12/27/2015,Y,End of Study,7,1/3/2017,374,Serum,"Aminotransferase, alanine (ALT)",pkat/L,0.505160957,0,0.58,7
01-005,1,Site 01,30,M,White,Treatment B,12/27/2015,Y,End of Study,7,1/3/2017,374,Serum,"Aminotransferase, aspartate (AST)",pkat/L,0.338429761,0,0.58,7
01-005,1,Site 01,30,M,White,Treatment B,12/27/2015,Y,End of Study,7,1/3/2017,374,Serum,Calcium,mmol/L,2.405055125,2.2,2.6,7
01-005,1,Site 01,30,M,White,Treatment B,12/27/2015,Y,End of Study,7,1/3/2017,374,Serum,Chloride,mmol/L,,98,106,7
01-005,1,Site 01,30,M,White,Treatment B,12/27/2015,Y,End of Study,7,1/3/2017,374,Serum,Creatinine,µmol/L,,61.9,115,7
01-005,1,Site 01,30,M,White,Treatment B,12/27/2015,Y,End of Study,7,1/3/2017,374,Serum,Direct Bilirubin,µmol/L,,0,5.1,7
01-005,1,Site 01,30,M,White,Treatment B,12/27/2015,Y,End of Study,7,1/3/2017,374,Serum,IgE,mg/L,0.132878365,0.1,0.4,7
01-005,1,Site 01,30,M,White,Treatment B,12/27/2015,Y,End of Study,7,1/3/2017,374,Serum,Magnesium,mmol/L,0.758924657,0.62,0.99,7
01-005,1,Site 01,30,M,White,Treatment B,12/27/2015,Y,End of Study,7,1/3/2017,374,Serum,Potassium,mmol/L,4.787878972,3.5,5,7
01-005,1,Site 01,30,M,White,Treatment B,12/27/2015,Y,End of Study,7,1/3/2017,374,Serum,Sodium,mmol/L,144.3613919,136,145,7
01-005,1,Site 01,30,M,White,Treatment B,12/27/2015,Y,End of Study,7,1/3/2017,374,Serum,Total Bilirubin,µmol/L,8.829973135,5.1,20.5,7
01-005,1,Site 01,30,M,White,Treatment B,12/27/2015,Y,End of Study,7,1/3/2017,374,Vital Signs,Diastolic Blood Pressure,mmHg,76.62674931,60,80,7
01-005,1,Site 01,30,M,White,Treatment B,12/27/2015,Y,End of Study,7,1/3/2017,374,Vital Signs,Heart Rate,beats/minute,42.09666411,50,80,7
01-005,1,Site 01,30,M,White,Treatment B,12/27/2015,Y,End of Study,7,1/3/2017,374,Vital Signs,Respiratory Rate,breaths/minute,16.98155486,16,20,7
01-005,1,Site 01,30,M,White,Treatment B,12/27/2015,Y,End of Study,7,1/3/2017,374,Vital Signs,Systolic Blood Pressure,mmHg,94.3841647,90,120,7
01-005,1,Site 01,30,M,White,Treatment B,12/27/2015,Y,End of Study,7,1/3/2017,374,Vital Signs,Temperature,°C,37.08891972,36.6,37,7
01-006,1,Site 01,23,M,White,Placebo,5/12/2015,N,,,,,,,,,,,
01-007,1,Site 01,20,M,Other/Mixed,Treatment A,9/11/2015,N,,,,,,,,,,,
01-008,1,Site 01,29,F,Hispanic,Treatment B,2/14/2015,Y,Screening,0,2/14/2015,1,Blood,Platelet count,x 109/L,118.4825909,150,350,0
01-008,1,Site 01,29,F,Hispanic,Treatment B,2/14/2015,Y,Screening,0,2/14/2015,1,Blood,RBC count,x 1012 cells/L,3.647343402,4.2,5.9,0
01-008,1,Site 01,29,F,Hispanic,Treatment B,2/14/2015,Y,Screening,0,2/14/2015,1,Blood,WBC count,x 109 cells/L,6.281523212,4.5,11,0
01-008,1,Site 01,29,F,Hispanic,Treatment B,2/14/2015,Y,Screening,0,2/14/2015,1,Serum,Albumin,g/L,38.96394648,35,55,0
01-008,1,Site 01,29,F,Hispanic,Treatment B,2/14/2015,Y,Screening,0,2/14/2015,1,Serum,Alkaline phosphatase (ALP),µkat/L,,0.5,1.5,0
01-008,1,Site 01,29,F,Hispanic,Treatment B,2/14/2015,Y,Screening,0,2/14/2015,1,Serum,"Aminotransferase, alanine (ALT)",pkat/L,0.061680577,0,0.58,0
01-008,1,Site 01,29,F,Hispanic,Treatment B,2/14/2015,Y,Screening,0,2/14/2015,1,Serum,"Aminotransferase, aspartate (AST)",pkat/L,0.7663327,0,0.58,0
01-008,1,Site 01,29,F,Hispanic,Treatment B,2/14/2015,Y,Screening,0,2/14/2015,1,Serum,Calcium,mmol/L,2.80480833,2.2,2.6,0
01-008,1,Site 01,29,F,Hispanic,Treatment B,2/14/2015,Y,Screening,0,2/14/2015,1,Serum,Chloride,mmol/L,107.8255983,98,106,0
01-008,1,Site 01,29,F,Hispanic,Treatment B,2/14/2015,Y,Screening,0,2/14/2015,1,Serum,Creatinine,µmol/L,29.65839694,61.9,115,0
01-008,1,Site 01,29,F,Hispanic,Treatment B,2/14/2015,Y,Screening,0,2/14/2015,1,Serum,Direct Bilirubin,µmol/L,2.68005619,0,5.1,0
01-008,1,Site 01,29,F,Hispanic,Treatment B,2/14/2015,Y,Screening,0,2/14/2015,1,Serum,IgE,mg/L,0.111156174,0.1,0.4,0
01-008,1,Site 01,29,F,Hispanic,Treatment B,2/14/2015,Y,Screening,0,2/14/2015,1,Serum,Magnesium,mmol/L,0.632551374,0.62,0.99,0
01-008,1,Site 01,29,F,Hispanic,Treatment B,2/14/2015,Y,Screening,0,2/14/2015,1,Serum,Potassium,mmol/L,3.813467426,3.5,5,0
01-008,1,Site 01,29,F,Hispanic,Treatment B,2/14/2015,Y,Screening,0,2/14/2015,1,Serum,Sodium,mmol/L,140.0849221,136,145,0
01-008,1,Site 01,29,F,Hispanic,Treatment B,2/14/2015,Y,Screening,0,2/14/2015,1,Serum,Total Bilirubin,µmol/L,10.41509561,5.1,20.5,0
01-008,1,Site 01,29,F,Hispanic,Treatment B,2/14/2015,Y,Screening,0,2/14/2015,1,Vital Signs,Diastolic Blood Pressure,mmHg,71.85391468,60,80,0
01-008,1,Site 01,29,F,Hispanic,Treatment B,2/14/2015,Y,Screening,0,2/14/2015,1,Vital Signs,Heart Rate,beats/minute,78.00418399,50,80,0
01-008,1,Site 01,29,F,Hispanic,Treatment B,2/14/2015,Y,Screening,0,2/14/2015,1,Vital Signs,Respiratory Rate,breaths/minute,15.56990762,16,20,0
01-008,1,Site 01,29,F,Hispanic,Treatment B,2/14/2015,Y,Screening,0,2/14/2015,1,Vital Signs,Systolic Blood Pressure,mmHg,98.99599508,90,120,0
01-008,1,Site 01,29,F,Hispanic,Treatment B,2/14/2015,Y,Screening,0,2/14/2015,1,Vital Signs,Temperature,°C,36.82928608,36.6,37,0
01-008,1,Site 01,29,F,Hispanic,Treatment B,2/14/2015,Y,Visit 1,1,4/5/2015,51,Blood,Platelet count,x 109/L,456.6782253,150,350,1
01-008,1,Site 01,29,F,Hispanic,Treatment B,2/14/2015,Y,Visit 1,1,4/5/2015,51,Blood,RBC count,x 1012 cells/L,4.808047233,4.2,5.9,1
01-008,1,Site 01,29,F,Hispanic,Treatment B,2/14/2015,Y,Visit 1,1,4/5/2015,51,Blood,WBC count,x 109 cells/L,7.95824971,4.5,11,1
01-008,1,Site 01,29,F,Hispanic,Treatment B,2/14/2015,Y,Visit 1,1,4/5/2015,51,Serum,Albumin,g/L,61.09740764,35,55,1
01-008,1,Site 01,29,F,Hispanic,Treatment B,2/14/2015,Y,Visit 1,1,4/5/2015,51,Serum,Alkaline phosphatase (ALP),µkat/L,1.372501318,0.5,1.5,1
01-008,1,Site 01,29,F,Hispanic,Treatment B,2/14/2015,Y,Visit 1,1,4/5/2015,51,Serum,"Aminotransferase, alanine (ALT)",pkat/L,0.164943994,0,0.58,1
01-008,1,Site 01,29,F,Hispanic,Treatment B,2/14/2015,Y,Visit 1,1,4/5/2015,51,Serum,"Aminotransferase, aspartate (AST)",pkat/L,0.194613869,0,0.58,1
01-008,1,Site 01,29,F,Hispanic,Treatment B,2/14/2015,Y,Visit 1,1,4/5/2015,51,Serum,Calcium,mmol/L,2.355045811,2.2,2.6,1
01-008,1,Site 01,29,F,Hispanic,Treatment B,2/14/2015,Y,Visit 1,1,4/5/2015,51,Serum,Chloride,mmol/L,,98,106,1
01-008,1,Site 01,29,F,Hispanic,Treatment B,2/14/2015,Y,Visit 1,1,4/5/2015,51,Serum,Creatinine,µmol/L,111.5023261,61.9,115,1
01-008,1,Site 01,29,F,Hispanic,Treatment B,2/14/2015,Y,Visit 1,1,4/5/2015,51,Serum,Direct Bilirubin,µmol/L,3.268360446,0,5.1,1
01-008,1,Site 01,29,F,Hispanic,Treatment B,2/14/2015,Y,Visit 1,1,4/5/2015,51,Serum,IgE,mg/L,0.173721635,0.1,0.4,1
01-008,1,Site 01,29,F,Hispanic,Treatment B,2/14/2015,Y,Visit 1,1,4/5/2015,51,Serum,Magnesium,mmol/L,0.697410966,0.62,0.99,1
01-008,1,Site 01,29,F,Hispanic,Treatment B,2/14/2015,Y,Visit 1,1,4/5/2015,51,Serum,Potassium,mmol/L,3.995921484,3.5,5,1
01-008,1,Site 01,29,F,Hispanic,Treatment B,2/14/2015,Y,Visit 1,1,4/5/2015,51,Serum,Sodium,mmol/L,140.7837756,136,145,1
01-008,1,Site 01,29,F,Hispanic,Treatment B,2/14/2015,Y,Visit 1,1,4/5/2015,51,Serum,Total Bilirubin,µmol/L,3.291644864,5.1,20.5,1
01-008,1,Site 01,29,F,Hispanic,Treatment B,2/14/2015,Y,Visit 1,1,4/5/2015,51,Vital Signs,Diastolic Blood Pressure,mmHg,61.45587447,60,80,1
01-008,1,Site 01,29,F,Hispanic,Treatment B,2/14/2015,Y,Visit 1,1,4/5/2015,51,Vital Signs,Heart Rate,beats/minute,34.31408157,50,80,1
01-008,1,Site 01,29,F,Hispanic,Treatment B,2/14/2015,Y,Visit 1,1,4/5/2015,51,Vital Signs,Respiratory Rate,breaths/minute,17.28354274,16,20,1
01-008,1,Site 01,29,F,Hispanic,Treatment B,2/14/2015,Y,Visit 1,1,4/5/2015,51,Vital Signs,Systolic Blood Pressure,mmHg,105.6933087,90,120,1
01-008,1,Site 01,29,F,Hispanic,Treatment B,2/14/2015,Y,Visit 1,1,4/5/2015,51,Vital Signs,Temperature,°C,37.24623366,36.6,37,1
01-008,1,Site 01,29,F,Hispanic,Treatment B,2/14/2015,Y,Visit 2,2,6/1/2015,108,Blood,Platelet count,x 109/L,352.8013988,150,350,2
01-008,1,Site 01,29,F,Hispanic,Treatment B,2/14/2015,Y,Visit 2,2,6/1/2015,108,Blood,RBC count,x 1012 cells/L,4.479936677,4.2,5.9,2
01-008,1,Site 01,29,F,Hispanic,Treatment B,2/14/2015,Y,Visit 2,2,6/1/2015,108,Blood,WBC count,x 109 cells/L,3.554807011,4.5,11,2
01-008,1,Site 01,29,F,Hispanic,Treatment B,2/14/2015,Y,Visit 2,2,6/1/2015,108,Serum,Albumin,g/L,42.92536456,35,55,2
01-008,1,Site 01,29,F,Hispanic,Treatment B,2/14/2015,Y,Visit 2,2,6/1/2015,108,Serum,Alkaline phosphatase (ALP),µkat/L,0.889671974,0.5,1.5,2
01-008,1,Site 01,29,F,Hispanic,Treatment B,2/14/2015,Y,Visit 2,2,6/1/2015,108,Serum,"Aminotransferase, alanine (ALT)",pkat/L,0.252477228,0,0.58,2
01-008,1,Site 01,29,F,Hispanic,Treatment B,2/14/2015,Y,Visit 2,2,6/1/2015,108,Serum,"Aminotransferase, aspartate (AST)",pkat/L,0.3792563,0,0.58,2
01-008,1,Site 01,29,F,Hispanic,Treatment B,2/14/2015,Y,Visit 2,2,6/1/2015,108,Serum,Calcium,mmol/L,2.368149498,2.2,2.6,2
01-008,1,Site 01,29,F,Hispanic,Treatment B,2/14/2015,Y,Visit 2,2,6/1/2015,108,Serum,Chloride,mmol/L,100.2658383,98,106,2
01-008,1,Site 01,29,F,Hispanic,Treatment B,2/14/2015,Y,Visit 2,2,6/1/2015,108,Serum,Creatinine,µmol/L,68.30649339,61.9,115,2
01-008,1,Site 01,29,F,Hispanic,Treatment B,2/14/2015,Y,Visit 2,2,6/1/2015,108,Serum,Direct Bilirubin,µmol/L,6.326294289,0,5.1,2
01-008,1,Site 01,29,F,Hispanic,Treatment B,2/14/2015,Y,Visit 2,2,6/1/2015,108,Serum,IgE,mg/L,0.15171757,0.1,0.4,2
01-008,1,Site 01,29,F,Hispanic,Treatment B,2/14/2015,Y,Visit 2,2,6/1/2015,108,Serum,Magnesium,mmol/L,0.900179917,0.62,0.99,2
01-008,1,Site 01,29,F,Hispanic,Treatment B,2/14/2015,Y,Visit 2,2,6/1/2015,108,Serum,Potassium,mmol/L,4.475718296,3.5,5,2
01-008,1,Site 01,29,F,Hispanic,Treatment B,2/14/2015,Y,Visit 2,2,6/1/2015,108,Serum,Sodium,mmol/L,138.544412,136,145,2
01-008,1,Site 01,29,F,Hispanic,Treatment B,2/14/2015,Y,Visit 2,2,6/1/2015,108,Serum,Total Bilirubin,µmol/L,16.3873164,5.1,20.5,2
01-008,1,Site 01,29,F,Hispanic,Treatment B,2/14/2015,Y,Visit 2,2,6/1/2015,108,Vital Signs,Diastolic Blood Pressure,mmHg,,60,80,2
01-008,1,Site 01,29,F,Hispanic,Treatment B,2/14/2015,Y,Visit 2,2,6/1/2015,108,Vital Signs,Heart Rate,beats/minute,75.44005421,50,80,2
01-008,1,Site 01,29,F,Hispanic,Treatment B,2/14/2015,Y,Visit 2,2,6/1/2015,108,Vital Signs,Respiratory Rate,breaths/minute,15.13973578,16,20,2
01-008,1,Site 01,29,F,Hispanic,Treatment B,2/14/2015,Y,Visit 2,2,6/1/2015,108,Vital Signs,Systolic Blood Pressure,mmHg,100.3046346,90,120,2
01-008,1,Site 01,29,F,Hispanic,Treatment B,2/14/2015,Y,Visit 2,2,6/1/2015,108,Vital Signs,Temperature,°C,36.29577841,36.6,37,2
01-008,1,Site 01,29,F,Hispanic,Treatment B,2/14/2015,Y,Visit 3,3,8/5/2015,173,Blood,Platelet count,x 109/L,67.31584083,150,350,3
01-008,1,Site 01,29,F,Hispanic,Treatment B,2/14/2015,Y,Visit 3,3,8/5/2015,173,Blood,RBC count,x 1012 cells/L,3.019211399,4.2,5.9,3
01-008,1,Site 01,29,F,Hispanic,Treatment B,2/14/2015,Y,Visit 3,3,8/5/2015,173,Blood,WBC count,x 109 cells/L,13.34995842,4.5,11,3
01-008,1,Site 01,29,F,Hispanic,Treatment B,2/14/2015,Y,Visit 3,3,8/5/2015,173,Serum,Albumin,g/L,45.92708418,35,55,3
01-008,1,Site 01,29,F,Hispanic,Treatment B,2/14/2015,Y,Visit 3,3,8/5/2015,173,Serum,Alkaline phosphatase (ALP),µkat/L,1.071507535,0.5,1.5,3
01-008,1,Site 01,29,F,Hispanic,Treatment B,2/14/2015,Y,Visit 3,3,8/5/2015,173,Serum,"Aminotransferase, alanine (ALT)",pkat/L,0.287687201,0,0.58,3
01-008,1,Site 01,29,F,Hispanic,Treatment B,2/14/2015,Y,Visit 3,3,8/5/2015,173,Serum,"Aminotransferase, aspartate (AST)",pkat/L,0.527838953,0,0.58,3
01-008,1,Site 01,29,F,Hispanic,Treatment B,2/14/2015,Y,Visit 3,3,8/5/2015,173,Serum,Calcium,mmol/L,2.343394936,2.2,2.6,3
01-008,1,Site 01,29,F,Hispanic,Treatment B,2/14/2015,Y,Visit 3,3,8/5/2015,173,Serum,Chloride,mmol/L,96.65969696,98,106,3
01-008,1,Site 01,29,F,Hispanic,Treatment B,2/14/2015,Y,Visit 3,3,8/5/2015,173,Serum,Creatinine,µmol/L,135.3225868,61.9,115,3
01-008,1,Site 01,29,F,Hispanic,Treatment B,2/14/2015,Y,Visit 3,3,8/5/2015,173,Serum,Direct Bilirubin,µmol/L,4.285230012,0,5.1,3
01-008,1,Site 01,29,F,Hispanic,Treatment B,2/14/2015,Y,Visit 3,3,8/5/2015,173,Serum,IgE,mg/L,0.293144737,0.1,0.4,3
01-008,1,Site 01,29,F,Hispanic,Treatment B,2/14/2015,Y,Visit 3,3,8/5/2015,173,Serum,Magnesium,mmol/L,0.817095412,0.62,0.99,3
01-008,1,Site 01,29,F,Hispanic,Treatment B,2/14/2015,Y,Visit 3,3,8/5/2015,173,Serum,Potassium,mmol/L,3.809460651,3.5,5,3
01-008,1,Site 01,29,F,Hispanic,Treatment B,2/14/2015,Y,Visit 3,3,8/5/2015,173,Serum,Sodium,mmol/L,,136,145,3
01-008,1,Site 01,29,F,Hispanic,Treatment B,2/14/2015,Y,Visit 3,3,8/5/2015,173,Serum,Total Bilirubin,µmol/L,5.533896011,5.1,20.5,3
01-008,1,Site 01,29,F,Hispanic,Treatment B,2/14/2015,Y,Visit 3,3,8/5/2015,173,Vital Signs,Diastolic Blood Pressure,mmHg,,60,80,3
01-008,1,Site 01,29,F,Hispanic,Treatment B,2/14/2015,Y,Visit 3,3,8/5/2015,173,Vital Signs,Heart Rate,beats/minute,,50,80,3
01-008,1,Site 01,29,F,Hispanic,Treatment B,2/14/2015,Y,Visit 3,3,8/5/2015,173,Vital Signs,Respiratory Rate,breaths/minute,17.8846392,16,20,3
01-008,1,Site 01,29,F,Hispanic,Treatment B,2/14/2015,Y,Visit 3,3,8/5/2015,173,Vital Signs,Systolic Blood Pressure,mmHg,116.3719044,90,120,3
01-008,1,Site 01,29,F,Hispanic,Treatment B,2/14/2015,Y,Visit 3,3,8/5/2015,173,Vital Signs,Temperature,°C,36.97148003,36.6,37,3
01-008,1,Site 01,29,F,Hispanic,Treatment B,2/14/2015,Y,Visit 4,4,9/22/2015,221,Blood,Platelet count,x 109/L,269.2186293,150,350,4
01-008,1,Site 01,29,F,Hispanic,Treatment B,2/14/2015,Y,Visit 4,4,9/22/2015,221,Blood,RBC count,x 1012 cells/L,5.552651293,4.2,5.9,4
01-008,1,Site 01,29,F,Hispanic,Treatment B,2/14/2015,Y,Visit 4,4,9/22/2015,221,Blood,WBC count,x 109 cells/L,5.26269898,4.5,11,4
01-008,1,Site 01,29,F,Hispanic,Treatment B,2/14/2015,Y,Visit 4,4,9/22/2015,221,Serum,Albumin,g/L,35.87675104,35,55,4
01-008,1,Site 01,29,F,Hispanic,Treatment B,2/14/2015,Y,Visit 4,4,9/22/2015,221,Serum,Alkaline phosphatase (ALP),µkat/L,0.802136234,0.5,1.5,4
01-008,1,Site 01,29,F,Hispanic,Treatment B,2/14/2015,Y,Visit 4,4,9/22/2015,221,Serum,"Aminotransferase, alanine (ALT)",pkat/L,0.274494811,0,0.58,4
01-008,1,Site 01,29,F,Hispanic,Treatment B,2/14/2015,Y,Visit 4,4,9/22/2015,221,Serum,"Aminotransferase, aspartate (AST)",pkat/L,0.178113163,0,0.58,4
01-008,1,Site 01,29,F,Hispanic,Treatment B,2/14/2015,Y,Visit 4,4,9/22/2015,221,Serum,Calcium,mmol/L,2.539259308,2.2,2.6,4
01-008,1,Site 01,29,F,Hispanic,Treatment B,2/14/2015,Y,Visit 4,4,9/22/2015,221,Serum,Chloride,mmol/L,98.12923368,98,106,4
01-008,1,Site 01,29,F,Hispanic,Treatment B,2/14/2015,Y,Visit 4,4,9/22/2015,221,Serum,Creatinine,µmol/L,23.5902341,61.9,115,4
01-008,1,Site 01,29,F,Hispanic,Treatment B,2/14/2015,Y,Visit 4,4,9/22/2015,221,Serum,Direct Bilirubin,µmol/L,2.343397454,0,5.1,4
01-008,1,Site 01,29,F,Hispanic,Treatment B,2/14/2015,Y,Visit 4,4,9/22/2015,221,Serum,IgE,mg/L,0,0.1,0.4,4
01-008,1,Site 01,29,F,Hispanic,Treatment B,2/14/2015,Y,Visit 4,4,9/22/2015,221,Serum,Magnesium,mmol/L,1.024273725,0.62,0.99,4
01-008,1,Site 01,29,F,Hispanic,Treatment B,2/14/2015,Y,Visit 4,4,9/22/2015,221,Serum,Potassium,mmol/L,4.866540189,3.5,5,4
01-008,1,Site 01,29,F,Hispanic,Treatment B,2/14/2015,Y,Visit 4,4,9/22/2015,221,Serum,Sodium,mmol/L,142.6850939,136,145,4
01-008,1,Site 01,29,F,Hispanic,Treatment B,2/14/2015,Y,Visit 4,4,9/22/2015,221,Serum,Total Bilirubin,µmol/L,,5.1,20.5,4
01-008,1,Site 01,29,F,Hispanic,Treatment B,2/14/2015,Y,Visit 4,4,9/22/2015,221,Vital Signs,Diastolic Blood Pressure,mmHg,72.65379286,60,80,4
01-008,1,Site 01,29,F,Hispanic,Treatment B,2/14/2015,Y,Visit 4,4,9/22/2015,221,Vital Signs,Heart Rate,beats/minute,100.678711,50,80,4
01-008,1,Site 01,29,F,Hispanic,Treatment B,2/14/2015,Y,Visit 4,4,9/22/2015,221,Vital Signs,Respiratory Rate,breaths/minute,18.93766618,16,20,4
01-008,1,Site 01,29,F,Hispanic,Treatment B,2/14/2015,Y,Visit 4,4,9/22/2015,221,Vital Signs,Systolic Blood Pressure,mmHg,,90,120,4
01-008,1,Site 01,29,F,Hispanic,Treatment B,2/14/2015,Y,Visit 4,4,9/22/2015,221,Vital Signs,Temperature,°C,36.86531405,36.6,37,4
01-008,1,Site 01,29,F,Hispanic,Treatment B,2/14/2015,Y,Visit 5,5,11/21/2015,281,Blood,Platelet count,x 109/L,374.7165929,150,350,5
01-008,1,Site 01,29,F,Hispanic,Treatment B,2/14/2015,Y,Visit 5,5,11/21/2015,281,Blood,RBC count,x 1012 cells/L,5.954345171,4.2,5.9,5
01-008,1,Site 01,29,F,Hispanic,Treatment B,2/14/2015,Y,Visit 5,5,11/21/2015,281,Blood,WBC count,x 109 cells/L,,4.5,11,5
01-008,1,Site 01,29,F,Hispanic,Treatment B,2/14/2015,Y,Visit 5,5,11/21/2015,281,Serum,Albumin,g/L,55.2882372,35,55,5
01-008,1,Site 01,29,F,Hispanic,Treatment B,2/14/2015,Y,Visit 5,5,11/21/2015,281,Serum,Alkaline phosphatase (ALP),µkat/L,1.474094638,0.5,1.5,5
01-008,1,Site 01,29,F,Hispanic,Treatment B,2/14/2015,Y,Visit 5,5,11/21/2015,281,Serum,"Aminotransferase, alanine (ALT)",pkat/L,0.165420214,0,0.58,5
01-008,1,Site 01,29,F,Hispanic,Treatment B,2/14/2015,Y,Visit 5,5,11/21/2015,281,Serum,"Aminotransferase, aspartate (AST)",pkat/L,0.173813792,0,0.58,5
01-008,1,Site 01,29,F,Hispanic,Treatment B,2/14/2015,Y,Visit 5,5,11/21/2015,281,Serum,Calcium,mmol/L,2.765166586,2.2,2.6,5
01-008,1,Site 01,29,F,Hispanic,Treatment B,2/14/2015,Y,Visit 5,5,11/21/2015,281,Serum,Chloride,mmol/L,100.4839557,98,106,5
01-008,1,Site 01,29,F,Hispanic,Treatment B,2/14/2015,Y,Visit 5,5,11/21/2015,281,Serum,Creatinine,µmol/L,67.4001707,61.9,115,5
01-008,1,Site 01,29,F,Hispanic,Treatment B,2/14/2015,Y,Visit 5,5,11/21/2015,281,Serum,Direct Bilirubin,µmol/L,,0,5.1,5
01-008,1,Site 01,29,F,Hispanic,Treatment B,2/14/2015,Y,Visit 5,5,11/21/2015,281,Serum,IgE,mg/L,0.190729878,0.1,0.4,5
01-008,1,Site 01,29,F,Hispanic,Treatment B,2/14/2015,Y,Visit 5,5,11/21/2015,281,Serum,Magnesium,mmol/L,0.769615643,0.62,0.99,5
01-008,1,Site 01,29,F,Hispanic,Treatment B,2/14/2015,Y,Visit 5,5,11/21/2015,281,Serum,Potassium,mmol/L,,3.5,5,5
01-008,1,Site 01,29,F,Hispanic,Treatment B,2/14/2015,Y,Visit 5,5,11/21/2015,281,Serum,Sodium,mmol/L,138.4973439,136,145,5
01-008,1,Site 01,29,F,Hispanic,Treatment B,2/14/2015,Y,Visit 5,5,11/21/2015,281,Serum,Total Bilirubin,µmol/L,0,5.1,20.5,5
01-008,1,Site 01,29,F,Hispanic,Treatment B,2/14/2015,Y,Visit 5,5,11/21/2015,281,Vital Signs,Diastolic Blood Pressure,mmHg,49.12733659,60,80,5
01-008,1,Site 01,29,F,Hispanic,Treatment B,2/14/2015,Y,Visit 5,5,11/21/2015,281,Vital Signs,Heart Rate,beats/minute,33.0609038,50,80,5
01-008,1,Site 01,29,F,Hispanic,Treatment B,2/14/2015,Y,Visit 5,5,11/21/2015,281,Vital Signs,Respiratory Rate,breaths/minute,20.0849564,16,20,5
01-008,1,Site 01,29,F,Hispanic,Treatment B,2/14/2015,Y,Visit 5,5,11/21/2015,281,Vital Signs,Systolic Blood Pressure,mmHg,93.47848723,90,120,5
01-008,1,Site 01,29,F,Hispanic,Treatment B,2/14/2015,Y,Visit 5,5,11/21/2015,281,Vital Signs,Temperature,°C,37.11180753,36.6,37,5
01-008,1,Site 01,29,F,Hispanic,Treatment B,2/14/2015,Y,Visit 6,6,1/11/2016,332,Blood,Platelet count,x 109/L,195.2671188,150,350,6
01-008,1,Site 01,29,F,Hispanic,Treatment B,2/14/2015,Y,Visit 6,6,1/11/2016,332,Blood,RBC count,x 1012 cells/L,,4.2,5.9,6
01-008,1,Site 01,29,F,Hispanic,Treatment B,2/14/2015,Y,Visit 6,6,1/11/2016,332,Blood,WBC count,x 109 cells/L,7.115303512,4.5,11,6
01-008,1,Site 01,29,F,Hispanic,Treatment B,2/14/2015,Y,Visit 6,6,1/11/2016,332,Serum,Albumin,g/L,47.25766669,35,55,6
01-008,1,Site 01,29,F,Hispanic,Treatment B,2/14/2015,Y,Visit 6,6,1/11/2016,332,Serum,Alkaline phosphatase (ALP),µkat/L,0.470915452,0.5,1.5,6
01-008,1,Site 01,29,F,Hispanic,Treatment B,2/14/2015,Y,Visit 6,6,1/11/2016,332,Serum,"Aminotransferase, alanine (ALT)",pkat/L,,0,0.58,6
01-008,1,Site 01,29,F,Hispanic,Treatment B,2/14/2015,Y,Visit 6,6,1/11/2016,332,Serum,"Aminotransferase, aspartate (AST)",pkat/L,0.687490891,0,0.58,6
01-008,1,Site 01,29,F,Hispanic,Treatment B,2/14/2015,Y,Visit 6,6,1/11/2016,332,Serum,Calcium,mmol/L,,2.2,2.6,6
01-008,1,Site 01,29,F,Hispanic,Treatment B,2/14/2015,Y,Visit 6,6,1/11/2016,332,Serum,Chloride,mmol/L,103.6229221,98,106,6
01-008,1,Site 01,29,F,Hispanic,Treatment B,2/14/2015,Y,Visit 6,6,1/11/2016,332,Serum,Creatinine,µmol/L,88.30736915,61.9,115,6
01-008,1,Site 01,29,F,Hispanic,Treatment B,2/14/2015,Y,Visit 6,6,1/11/2016,332,Serum,Direct Bilirubin,µmol/L,1.466541507,0,5.1,6
01-008,1,Site 01,29,F,Hispanic,Treatment B,2/14/2015,Y,Visit 6,6,1/11/2016,332,Serum,IgE,mg/L,0.093294023,0.1,0.4,6
01-008,1,Site 01,29,F,Hispanic,Treatment B,2/14/2015,Y,Visit 6,6,1/11/2016,332,Serum,Magnesium,mmol/L,,0.62,0.99,6
01-008,1,Site 01,29,F,Hispanic,Treatment B,2/14/2015,Y,Visit 6,6,1/11/2016,332,Serum,Potassium,mmol/L,4.670612907,3.5,5,6
01-008,1,Site 01,29,F,Hispanic,Treatment B,2/14/2015,Y,Visit 6,6,1/11/2016,332,Serum,Sodium,mmol/L,140.0115751,136,145,6
01-008,1,Site 01,29,F,Hispanic,Treatment B,2/14/2015,Y,Visit 6,6,1/11/2016,332,Serum,Total Bilirubin,µmol/L,0,5.1,20.5,6
01-008,1,Site 01,29,F,Hispanic,Treatment B,2/14/2015,Y,Visit 6,6,1/11/2016,332,Vital Signs,Diastolic Blood Pressure,mmHg,67.01680013,60,80,6
01-008,1,Site 01,29,F,Hispanic,Treatment B,2/14/2015,Y,Visit 6,6,1/11/2016,332,Vital Signs,Heart Rate,beats/minute,77.40348206,50,80,6
01-008,1,Site 01,29,F,Hispanic,Treatment B,2/14/2015,Y,Visit 6,6,1/11/2016,332,Vital Signs,Respiratory Rate,breaths/minute,19.59241939,16,20,6
01-008,1,Site 01,29,F,Hispanic,Treatment B,2/14/2015,Y,Visit 6,6,1/11/2016,332,Vital Signs,Systolic Blood Pressure,mmHg,81.54031729,90,120,6
01-008,1,Site 01,29,F,Hispanic,Treatment B,2/14/2015,Y,Visit 6,6,1/11/2016,332,Vital Signs,Temperature,°C,36.73923613,36.6,37,6
01-008,1,Site 01,29,F,Hispanic,Treatment B,2/14/2015,Y,End of Study,7,2/15/2016,367,Blood,Platelet count,x 109/L,159.1696719,150,350,7
01-008,1,Site 01,29,F,Hispanic,Treatment B,2/14/2015,Y,End of Study,7,2/15/2016,367,Blood,RBC count,x 1012 cells/L,5.023161127,4.2,5.9,7
01-008,1,Site 01,29,F,Hispanic,Treatment B,2/14/2015,Y,End of Study,7,2/15/2016,367,Blood,WBC count,x 109 cells/L,8.423390164,4.5,11,7
01-008,1,Site 01,29,F,Hispanic,Treatment B,2/14/2015,Y,End of Study,7,2/15/2016,367,Serum,Albumin,g/L,33.35651156,35,55,7
01-008,1,Site 01,29,F,Hispanic,Treatment B,2/14/2015,Y,End of Study,7,2/15/2016,367,Serum,Alkaline phosphatase (ALP),µkat/L,0,0.5,1.5,7
01-008,1,Site 01,29,F,Hispanic,Treatment B,2/14/2015,Y,End of Study,7,2/15/2016,367,Serum,"Aminotransferase, alanine (ALT)",pkat/L,0.615844967,0,0.58,7
01-008,1,Site 01,29,F,Hispanic,Treatment B,2/14/2015,Y,End of Study,7,2/15/2016,367,Serum,"Aminotransferase, aspartate (AST)",pkat/L,0.645776593,0,0.58,7
01-008,1,Site 01,29,F,Hispanic,Treatment B,2/14/2015,Y,End of Study,7,2/15/2016,367,Serum,Calcium,mmol/L,2.49271018,2.2,2.6,7
01-008,1,Site 01,29,F,Hispanic,Treatment B,2/14/2015,Y,End of Study,7,2/15/2016,367,Serum,Chloride,mmol/L,,98,106,7
01-008,1,Site 01,29,F,Hispanic,Treatment B,2/14/2015,Y,End of Study,7,2/15/2016,367,Serum,Creatinine,µmol/L,81.44857411,61.9,115,7
01-008,1,Site 01,29,F,Hispanic,Treatment B,2/14/2015,Y,End of Study,7,2/15/2016,367,Serum,Direct Bilirubin,µmol/L,,0,5.1,7
01-008,1,Site 01,29,F,Hispanic,Treatment B,2/14/2015,Y,End of Study,7,2/15/2016,367,Serum,IgE,mg/L,0.227571327,0.1,0.4,7
01-008,1,Site 01,29,F,Hispanic,Treatment B,2/14/2015,Y,End of Study,7,2/15/2016,367,Serum,Magnesium,mmol/L,0.607442223,0.62,0.99,7
01-008,1,Site 01,29,F,Hispanic,Treatment B,2/14/2015,Y,End of Study,7,2/15/2016,367,Serum,Potassium,mmol/L,4.54912011,3.5,5,7
01-008,1,Site 01,29,F,Hispanic,Treatment B,2/14/2015,Y,End of Study,7,2/15/2016,367,Serum,Sodium,mmol/L,144.9789032,136,145,7
01-008,1,Site 01,29,F,Hispanic,Treatment B,2/14/2015,Y,End of Study,7,2/15/2016,367,Serum,Total Bilirubin,µmol/L,13.87033439,5.1,20.5,7
01-008,1,Site 01,29,F,Hispanic,Treatment B,2/14/2015,Y,End of Study,7,2/15/2016,367,Vital Signs,Diastolic Blood Pressure,mmHg,78.57903415,60,80,7
01-008,1,Site 01,29,F,Hispanic,Treatment B,2/14/2015,Y,End of Study,7,2/15/2016,367,Vital Signs,Heart Rate,beats/minute,39.16781484,50,80,7
01-008,1,Site 01,29,F,Hispanic,Treatment B,2/14/2015,Y,End of Study,7,2/15/2016,367,Vital Signs,Respiratory Rate,breaths/minute,16.94345626,16,20,7
01-008,1,Site 01,29,F,Hispanic,Treatment B,2/14/2015,Y,End of Study,7,2/15/2016,367,Vital Signs,Systolic Blood Pressure,mmHg,102.2316328,90,120,7
01-008,1,Site 01,29,F,Hispanic,Treatment B,2/14/2015,Y,End of Study,7,2/15/2016,367,Vital Signs,Temperature,°C,36.7234125,36.6,37,7
01-009,1,Site 01,53,F,Black,Treatment B,11/22/2015,Y,Screening,0,11/22/2015,1,Blood,Platelet count,x 109/L,74.81145653,150,350,0
01-009,1,Site 01,53,F,Black,Treatment B,11/22/2015,Y,Screening,0,11/22/2015,1,Blood,RBC count,x 1012 cells/L,3.558575773,4.2,5.9,0
01-009,1,Site 01,53,F,Black,Treatment B,11/22/2015,Y,Screening,0,11/22/2015,1,Blood,WBC count,x 109 cells/L,10.17031921,4.5,11,0
01-009,1,Site 01,53,F,Black,Treatment B,11/22/2015,Y,Screening,0,11/22/2015,1,Serum,Albumin,g/L,38.53045803,35,55,0
01-009,1,Site 01,53,F,Black,Treatment B,11/22/2015,Y,Screening,0,11/22/2015,1,Serum,Alkaline phosphatase (ALP),µkat/L,,0.5,1.5,0
01-009,1,Site 01,53,F,Black,Treatment B,11/22/2015,Y,Screening,0,11/22/2015,1,Serum,"Aminotransferase, alanine (ALT)",pkat/L,0.08582475,0,0.58,0
01-009,1,Site 01,53,F,Black,Treatment B,11/22/2015,Y,Screening,0,11/22/2015,1,Serum,"Aminotransferase, aspartate (AST)",pkat/L,0.001017978,0,0.58,0
01-009,1,Site 01,53,F,Black,Treatment B,11/22/2015,Y,Screening,0,11/22/2015,1,Serum,Calcium,mmol/L,2.690310533,2.2,2.6,0
01-009,1,Site 01,53,F,Black,Treatment B,11/22/2015,Y,Screening,0,11/22/2015,1,Serum,Chloride,mmol/L,110.9932638,98,106,0
01-009,1,Site 01,53,F,Black,Treatment B,11/22/2015,Y,Screening,0,11/22/2015,1,Serum,Creatinine,µmol/L,84.42688786,61.9,115,0
01-009,1,Site 01,53,F,Black,Treatment B,11/22/2015,Y,Screening,0,11/22/2015,1,Serum,Direct Bilirubin,µmol/L,0,0,5.1,0
01-009,1,Site 01,53,F,Black,Treatment B,11/22/2015,Y,Screening,0,11/22/2015,1,Serum,IgE,mg/L,0.034088609,0.1,0.4,0
01-009,1,Site 01,53,F,Black,Treatment B,11/22/2015,Y,Screening,0,11/22/2015,1,Serum,Magnesium,mmol/L,0.989167273,0.62,0.99,0
01-009,1,Site 01,53,F,Black,Treatment B,11/22/2015,Y,Screening,0,11/22/2015,1,Serum,Potassium,mmol/L,4.549772113,3.5,5,0
01-009,1,Site 01,53,F,Black,Treatment B,11/22/2015,Y,Screening,0,11/22/2015,1,Serum,Sodium,mmol/L,131.0498014,136,145,0
01-009,1,Site 01,53,F,Black,Treatment B,11/22/2015,Y,Screening,0,11/22/2015,1,Serum,Total Bilirubin,µmol/L,18.43025576,5.1,20.5,0
01-009,1,Site 01,53,F,Black,Treatment B,11/22/2015,Y,Screening,0,11/22/2015,1,Vital Signs,Diastolic Blood Pressure,mmHg,100.9999089,60,80,0
01-009,1,Site 01,53,F,Black,Treatment B,11/22/2015,Y,Screening,0,11/22/2015,1,Vital Signs,Heart Rate,beats/minute,74.79122714,50,80,0
01-009,1,Site 01,53,F,Black,Treatment B,11/22/2015,Y,Screening,0,11/22/2015,1,Vital Signs,Respiratory Rate,breaths/minute,22.23702222,16,20,0
01-009,1,Site 01,53,F,Black,Treatment B,11/22/2015,Y,Screening,0,11/22/2015,1,Vital Signs,Systolic Blood Pressure,mmHg,116.118425,90,120,0
01-009,1,Site 01,53,F,Black,Treatment B,11/22/2015,Y,Screening,0,11/22/2015,1,Vital Signs,Temperature,°C,36.66300987,36.6,37,0
01-009,1,Site 01,53,F,Black,Treatment B,11/22/2015,Y,Visit 1,1,1/21/2016,61,Blood,Platelet count,x 109/L,105.8491006,150,350,1
01-009,1,Site 01,53,F,Black,Treatment B,11/22/2015,Y,Visit 1,1,1/21/2016,61,Blood,RBC count,x 1012 cells/L,3.627112307,4.2,5.9,1
01-009,1,Site 01,53,F,Black,Treatment B,11/22/2015,Y,Visit 1,1,1/21/2016,61,Blood,WBC count,x 109 cells/L,7.7861326,4.5,11,1
01-009,1,Site 01,53,F,Black,Treatment B,11/22/2015,Y,Visit 1,1,1/21/2016,61,Serum,Albumin,g/L,64.14177933,35,55,1
01-009,1,Site 01,53,F,Black,Treatment B,11/22/2015,Y,Visit 1,1,1/21/2016,61,Serum,Alkaline phosphatase (ALP),µkat/L,0.938099682,0.5,1.5,1
01-009,1,Site 01,53,F,Black,Treatment B,11/22/2015,Y,Visit 1,1,1/21/2016,61,Serum,"Aminotransferase, alanine (ALT)",pkat/L,0.09880007,0,0.58,1
01-009,1,Site 01,53,F,Black,Treatment B,11/22/2015,Y,Visit 1,1,1/21/2016,61,Serum,"Aminotransferase, aspartate (AST)",pkat/L,0.730248516,0,0.58,1
01-009,1,Site 01,53,F,Black,Treatment B,11/22/2015,Y,Visit 1,1,1/21/2016,61,Serum,Calcium,mmol/L,2.665719744,2.2,2.6,1
01-009,1,Site 01,53,F,Black,Treatment B,11/22/2015,Y,Visit 1,1,1/21/2016,61,Serum,Chloride,mmol/L,,98,106,1
01-009,1,Site 01,53,F,Black,Treatment B,11/22/2015,Y,Visit 1,1,1/21/2016,61,Serum,Creatinine,µmol/L,98.45231776,61.9,115,1
01-009,1,Site 01,53,F,Black,Treatment B,11/22/2015,Y,Visit 1,1,1/21/2016,61,Serum,Direct Bilirubin,µmol/L,4.307914624,0,5.1,1
01-009,1,Site 01,53,F,Black,Treatment B,11/22/2015,Y,Visit 1,1,1/21/2016,61,Serum,IgE,mg/L,0.199602909,0.1,0.4,1
01-009,1,Site 01,53,F,Black,Treatment B,11/22/2015,Y,Visit 1,1,1/21/2016,61,Serum,Magnesium,mmol/L,0.901813614,0.62,0.99,1
01-009,1,Site 01,53,F,Black,Treatment B,11/22/2015,Y,Visit 1,1,1/21/2016,61,Serum,Potassium,mmol/L,4.620344167,3.5,5,1
01-009,1,Site 01,53,F,Black,Treatment B,11/22/2015,Y,Visit 1,1,1/21/2016,61,Serum,Sodium,mmol/L,150.9629293,136,145,1
01-009,1,Site 01,53,F,Black,Treatment B,11/22/2015,Y,Visit 1,1,1/21/2016,61,Serum,Total Bilirubin,µmol/L,18.19570018,5.1,20.5,1
01-009,1,Site 01,53,F,Black,Treatment B,11/22/2015,Y,Visit 1,1,1/21/2016,61,Vital Signs,Diastolic Blood Pressure,mmHg,80.55959462,60,80,1
01-009,1,Site 01,53,F,Black,Treatment B,11/22/2015,Y,Visit 1,1,1/21/2016,61,Vital Signs,Heart Rate,beats/minute,23.51924667,50,80,1
01-009,1,Site 01,53,F,Black,Treatment B,11/22/2015,Y,Visit 1,1,1/21/2016,61,Vital Signs,Respiratory Rate,breaths/minute,14.79134652,16,20,1
01-009,1,Site 01,53,F,Black,Treatment B,11/22/2015,Y,Visit 1,1,1/21/2016,61,Vital Signs,Systolic Blood Pressure,mmHg,103.6532798,90,120,1
01-009,1,Site 01,53,F,Black,Treatment B,11/22/2015,Y,Visit 1,1,1/21/2016,61,Vital Signs,Temperature,°C,36.60267306,36.6,37,1
01-009,1,Site 01,53,F,Black,Treatment B,11/22/2015,Y,Visit 2,2,3/14/2016,114,Blood,Platelet count,x 109/L,0,150,350,2
01-009,1,Site 01,53,F,Black,Treatment B,11/22/2015,Y,Visit 2,2,3/14/2016,114,Blood,RBC count,x 1012 cells/L,4.825778402,4.2,5.9,2
01-009,1,Site 01,53,F,Black,Treatment B,11/22/2015,Y,Visit 2,2,3/14/2016,114,Blood,WBC count,x 109 cells/L,13.07726632,4.5,11,2
01-009,1,Site 01,53,F,Black,Treatment B,11/22/2015,Y,Visit 2,2,3/14/2016,114,Serum,Albumin,g/L,31.90811931,35,55,2
01-009,1,Site 01,53,F,Black,Treatment B,11/22/2015,Y,Visit 2,2,3/14/2016,114,Serum,Alkaline phosphatase (ALP),µkat/L,1.063896814,0.5,1.5,2
01-009,1,Site 01,53,F,Black,Treatment B,11/22/2015,Y,Visit 2,2,3/14/2016,114,Serum,"Aminotransferase, alanine (ALT)",pkat/L,0.038370831,0,0.58,2
01-009,1,Site 01,53,F,Black,Treatment B,11/22/2015,Y,Visit 2,2,3/14/2016,114,Serum,"Aminotransferase, aspartate (AST)",pkat/L,0.452917617,0,0.58,2
01-009,1,Site 01,53,F,Black,Treatment B,11/22/2015,Y,Visit 2,2,3/14/2016,114,Serum,Calcium,mmol/L,2.602397331,2.2,2.6,2
01-009,1,Site 01,53,F,Black,Treatment B,11/22/2015,Y,Visit 2,2,3/14/2016,114,Serum,Chloride,mmol/L,104.2891828,98,106,2
01-009,1,Site 01,53,F,Black,Treatment B,11/22/2015,Y,Visit 2,2,3/14/2016,114,Serum,Creatinine,µmol/L,53.80535344,61.9,115,2
01-009,1,Site 01,53,F,Black,Treatment B,11/22/2015,Y,Visit 2,2,3/14/2016,114,Serum,Direct Bilirubin,µmol/L,1.948283049,0,5.1,2
01-009,1,Site 01,53,F,Black,Treatment B,11/22/2015,Y,Visit 2,2,3/14/2016,114,Serum,IgE,mg/L,0.331202495,0.1,0.4,2
01-009,1,Site 01,53,F,Black,Treatment B,11/22/2015,Y,Visit 2,2,3/14/2016,114,Serum,Magnesium,mmol/L,0.379099061,0.62,0.99,2
01-009,1,Site 01,53,F,Black,Treatment B,11/22/2015,Y,Visit 2,2,3/14/2016,114,Serum,Potassium,mmol/L,3.336223501,3.5,5,2
01-009,1,Site 01,53,F,Black,Treatment B,11/22/2015,Y,Visit 2,2,3/14/2016,114,Serum,Sodium,mmol/L,136.3351363,136,145,2
01-009,1,Site 01,53,F,Black,Treatment B,11/22/2015,Y,Visit 2,2,3/14/2016,114,Serum,Total Bilirubin,µmol/L,13.59339963,5.1,20.5,2
01-009,1,Site 01,53,F,Black,Treatment B,11/22/2015,Y,Visit 2,2,3/14/2016,114,Vital Signs,Diastolic Blood Pressure,mmHg,,60,80,2
01-009,1,Site 01,53,F,Black,Treatment B,11/22/2015,Y,Visit 2,2,3/14/2016,114,Vital Signs,Heart Rate,beats/minute,75.87777789,50,80,2
01-009,1,Site 01,53,F,Black,Treatment B,11/22/2015,Y,Visit 2,2,3/14/2016,114,Vital Signs,Respiratory Rate,breaths/minute,18.14058838,16,20,2
01-009,1,Site 01,53,F,Black,Treatment B,11/22/2015,Y,Visit 2,2,3/14/2016,114,Vital Signs,Systolic Blood Pressure,mmHg,97.06838554,90,120,2
01-009,1,Site 01,53,F,Black,Treatment B,11/22/2015,Y,Visit 2,2,3/14/2016,114,Vital Signs,Temperature,°C,36.9465932,36.6,37,2
01-009,1,Site 01,53,F,Black,Treatment B,11/22/2015,Y,Visit 3,3,5/1/2016,162,Blood,Platelet count,x 109/L,242.1722013,150,350,3
01-009,1,Site 01,53,F,Black,Treatment B,11/22/2015,Y,Visit 3,3,5/1/2016,162,Blood,RBC count,x 1012 cells/L,6.19523017,4.2,5.9,3
01-009,1,Site 01,53,F,Black,Treatment B,11/22/2015,Y,Visit 3,3,5/1/2016,162,Blood,WBC count,x 109 cells/L,13.68572019,4.5,11,3
01-009,1,Site 01,53,F,Black,Treatment B,11/22/2015,Y,Visit 3,3,5/1/2016,162,Serum,Albumin,g/L,29.2820529,35,55,3
01-009,1,Site 01,53,F,Black,Treatment B,11/22/2015,Y,Visit 3,3,5/1/2016,162,Serum,Alkaline phosphatase (ALP),µkat/L,0.895635875,0.5,1.5,3
01-009,1,Site 01,53,F,Black,Treatment B,11/22/2015,Y,Visit 3,3,5/1/2016,162,Serum,"Aminotransferase, alanine (ALT)",pkat/L,0.747083958,0,0.58,3
01-009,1,Site 01,53,F,Black,Treatment B,11/22/2015,Y,Visit 3,3,5/1/2016,162,Serum,"Aminotransferase, aspartate (AST)",pkat/L,0.151519734,0,0.58,3
01-009,1,Site 01,53,F,Black,Treatment B,11/22/2015,Y,Visit 3,3,5/1/2016,162,Serum,Calcium,mmol/L,2.494735081,2.2,2.6,3
01-009,1,Site 01,53,F,Black,Treatment B,11/22/2015,Y,Visit 3,3,5/1/2016,162,Serum,Chloride,mmol/L,101.7782704,98,106,3
01-009,1,Site 01,53,F,Black,Treatment B,11/22/2015,Y,Visit 3,3,5/1/2016,162,Serum,Creatinine,µmol/L,83.86945714,61.9,115,3
01-009,1,Site 01,53,F,Black,Treatment B,11/22/2015,Y,Visit 3,3,5/1/2016,162,Serum,Direct Bilirubin,µmol/L,4.54421874,0,5.1,3
01-009,1,Site 01,53,F,Black,Treatment B,11/22/2015,Y,Visit 3,3,5/1/2016,162,Serum,IgE,mg/L,,0.1,0.4,3
01-009,1,Site 01,53,F,Black,Treatment B,11/22/2015,Y,Visit 3,3,5/1/2016,162,Serum,Magnesium,mmol/L,0.903339657,0.62,0.99,3
01-009,1,Site 01,53,F,Black,Treatment B,11/22/2015,Y,Visit 3,3,5/1/2016,162,Serum,Potassium,mmol/L,4.669938371,3.5,5,3
01-009,1,Site 01,53,F,Black,Treatment B,11/22/2015,Y,Visit 3,3,5/1/2016,162,Serum,Sodium,mmol/L,,136,145,3
01-009,1,Site 01,53,F,Black,Treatment B,11/22/2015,Y,Visit 3,3,5/1/2016,162,Serum,Total Bilirubin,µmol/L,19.16240622,5.1,20.5,3
01-009,1,Site 01,53,F,Black,Treatment B,11/22/2015,Y,Visit 3,3,5/1/2016,162,Vital Signs,Diastolic Blood Pressure,mmHg,,60,80,3
01-009,1,Site 01,53,F,Black,Treatment B,11/22/2015,Y,Visit 3,3,5/1/2016,162,Vital Signs,Heart Rate,beats/minute,,50,80,3
01-009,1,Site 01,53,F,Black,Treatment B,11/22/2015,Y,Visit 3,3,5/1/2016,162,Vital Signs,Respiratory Rate,breaths/minute,16.23216576,16,20,3
01-009,1,Site 01,53,F,Black,Treatment B,11/22/2015,Y,Visit 3,3,5/1/2016,162,Vital Signs,Systolic Blood Pressure,mmHg,124.1654759,90,120,3
01-009,1,Site 01,53,F,Black,Treatment B,11/22/2015,Y,Visit 3,3,5/1/2016,162,Vital Signs,Temperature,°C,37.00044604,36.6,37,3
01-009,1,Site 01,53,F,Black,Treatment B,11/22/2015,Y,Visit 4,4,6/28/2016,220,Blood,Platelet count,x 109/L,355.00514,150,350,4
01-009,1,Site 01,53,F,Black,Treatment B,11/22/2015,Y,Visit 4,4,6/28/2016,220,Blood,RBC count,x 1012 cells/L,4.25623744,4.2,5.9,4
01-009,1,Site 01,53,F,Black,Treatment B,11/22/2015,Y,Visit 4,4,6/28/2016,220,Blood,WBC count,x 109 cells/L,5.812909092,4.5,11,4
01-009,1,Site 01,53,F,Black,Treatment B,11/22/2015,Y,Visit 4,4,6/28/2016,220,Serum,Albumin,g/L,38.54372334,35,55,4
01-009,1,Site 01,53,F,Black,Treatment B,11/22/2015,Y,Visit 4,4,6/28/2016,220,Serum,Alkaline phosphatase (ALP),µkat/L,1.238964187,0.5,1.5,4
01-009,1,Site 01,53,F,Black,Treatment B,11/22/2015,Y,Visit 4,4,6/28/2016,220,Serum,"Aminotransferase, alanine (ALT)",pkat/L,0.156308329,0,0.58,4
01-009,1,Site 01,53,F,Black,Treatment B,11/22/2015,Y,Visit 4,4,6/28/2016,220,Serum,"Aminotransferase, aspartate (AST)",pkat/L,0.472501596,0,0.58,4
01-009,1,Site 01,53,F,Black,Treatment B,11/22/2015,Y,Visit 4,4,6/28/2016,220,Serum,Calcium,mmol/L,2.21519979,2.2,2.6,4
01-009,1,Site 01,53,F,Black,Treatment B,11/22/2015,Y,Visit 4,4,6/28/2016,220,Serum,Chloride,mmol/L,108.6060753,98,106,4
01-009,1,Site 01,53,F,Black,Treatment B,11/22/2015,Y,Visit 4,4,6/28/2016,220,Serum,Creatinine,µmol/L,96.29499332,61.9,115,4
01-009,1,Site 01,53,F,Black,Treatment B,11/22/2015,Y,Visit 4,4,6/28/2016,220,Serum,Direct Bilirubin,µmol/L,2.595089066,0,5.1,4
01-009,1,Site 01,53,F,Black,Treatment B,11/22/2015,Y,Visit 4,4,6/28/2016,220,Serum,IgE,mg/L,0.549068357,0.1,0.4,4
01-009,1,Site 01,53,F,Black,Treatment B,11/22/2015,Y,Visit 4,4,6/28/2016,220,Serum,Magnesium,mmol/L,0.389545402,0.62,0.99,4
01-009,1,Site 01,53,F,Black,Treatment B,11/22/2015,Y,Visit 4,4,6/28/2016,220,Serum,Potassium,mmol/L,6.265487449,3.5,5,4
01-009,1,Site 01,53,F,Black,Treatment B,11/22/2015,Y,Visit 4,4,6/28/2016,220,Serum,Sodium,mmol/L,143.0374079,136,145,4
01-009,1,Site 01,53,F,Black,Treatment B,11/22/2015,Y,Visit 4,4,6/28/2016,220,Serum,Total Bilirubin,µmol/L,,5.1,20.5,4
01-009,1,Site 01,53,F,Black,Treatment B,11/22/2015,Y,Visit 4,4,6/28/2016,220,Vital Signs,Diastolic Blood Pressure,mmHg,75.06598694,60,80,4
01-009,1,Site 01,53,F,Black,Treatment B,11/22/2015,Y,Visit 4,4,6/28/2016,220,Vital Signs,Heart Rate,beats/minute,78.13602169,50,80,4
01-009,1,Site 01,53,F,Black,Treatment B,11/22/2015,Y,Visit 4,4,6/28/2016,220,Vital Signs,Respiratory Rate,breaths/minute,17.84555804,16,20,4
01-009,1,Site 01,53,F,Black,Treatment B,11/22/2015,Y,Visit 4,4,6/28/2016,220,Vital Signs,Systolic Blood Pressure,mmHg,,90,120,4
01-009,1,Site 01,53,F,Black,Treatment B,11/22/2015,Y,Visit 4,4,6/28/2016,220,Vital Signs,Temperature,°C,36.62470647,36.6,37,4
01-009,1,Site 01,53,F,Black,Treatment B,11/22/2015,Y,Visit 5,5,8/23/2016,276,Blood,Platelet count,x 109/L,260.5427659,150,350,5
01-009,1,Site 01,53,F,Black,Treatment B,11/22/2015,Y,Visit 5,5,8/23/2016,276,Blood,RBC count,x 1012 cells/L,4.923240049,4.2,5.9,5
01-009,1,Site 01,53,F,Black,Treatment B,11/22/2015,Y,Visit 5,5,8/23/2016,276,Blood,WBC count,x 109 cells/L,,4.5,11,5
01-009,1,Site 01,53,F,Black,Treatment B,11/22/2015,Y,Visit 5,5,8/23/2016,276,Serum,Albumin,g/L,51.35431916,35,55,5
01-009,1,Site 01,53,F,Black,Treatment B,11/22/2015,Y,Visit 5,5,8/23/2016,276,Serum,Alkaline phosphatase (ALP),µkat/L,0.887609696,0.5,1.5,5
01-009,1,Site 01,53,F,Black,Treatment B,11/22/2015,Y,Visit 5,5,8/23/2016,276,Serum,"Aminotransferase, alanine (ALT)",pkat/L,0,0,0.58,5
01-009,1,Site 01,53,F,Black,Treatment B,11/22/2015,Y,Visit 5,5,8/23/2016,276,Serum,"Aminotransferase, aspartate (AST)",pkat/L,0.25796827,0,0.58,5
01-009,1,Site 01,53,F,Black,Treatment B,11/22/2015,Y,Visit 5,5,8/23/2016,276,Serum,Calcium,mmol/L,2.497353162,2.2,2.6,5
01-009,1,Site 01,53,F,Black,Treatment B,11/22/2015,Y,Visit 5,5,8/23/2016,276,Serum,Chloride,mmol/L,100.9592709,98,106,5
01-009,1,Site 01,53,F,Black,Treatment B,11/22/2015,Y,Visit 5,5,8/23/2016,276,Serum,Creatinine,µmol/L,66.89717708,61.9,115,5
01-009,1,Site 01,53,F,Black,Treatment B,11/22/2015,Y,Visit 5,5,8/23/2016,276,Serum,Direct Bilirubin,µmol/L,0,0,5.1,5
01-009,1,Site 01,53,F,Black,Treatment B,11/22/2015,Y,Visit 5,5,8/23/2016,276,Serum,IgE,mg/L,0.187372506,0.1,0.4,5
01-009,1,Site 01,53,F,Black,Treatment B,11/22/2015,Y,Visit 5,5,8/23/2016,276,Serum,Magnesium,mmol/L,0.898734744,0.62,0.99,5
01-009,1,Site 01,53,F,Black,Treatment B,11/22/2015,Y,Visit 5,5,8/23/2016,276,Serum,Potassium,mmol/L,,3.5,5,5
01-009,1,Site 01,53,F,Black,Treatment B,11/22/2015,Y,Visit 5,5,8/23/2016,276,Serum,Sodium,mmol/L,139.7565939,136,145,5
01-009,1,Site 01,53,F,Black,Treatment B,11/22/2015,Y,Visit 5,5,8/23/2016,276,Serum,Total Bilirubin,µmol/L,6.327530848,5.1,20.5,5
01-009,1,Site 01,53,F,Black,Treatment B,11/22/2015,Y,Visit 5,5,8/23/2016,276,Vital Signs,Diastolic Blood Pressure,mmHg,53.45530989,60,80,5
01-009,1,Site 01,53,F,Black,Treatment B,11/22/2015,Y,Visit 5,5,8/23/2016,276,Vital Signs,Heart Rate,beats/minute,53.13424114,50,80,5
01-009,1,Site 01,53,F,Black,Treatment B,11/22/2015,Y,Visit 5,5,8/23/2016,276,Vital Signs,Respiratory Rate,breaths/minute,16.07143287,16,20,5
01-009,1,Site 01,53,F,Black,Treatment B,11/22/2015,Y,Visit 5,5,8/23/2016,276,Vital Signs,Systolic Blood Pressure,mmHg,111.8707669,90,120,5
01-009,1,Site 01,53,F,Black,Treatment B,11/22/2015,Y,Visit 5,5,8/23/2016,276,Vital Signs,Temperature,°C,36.67085934,36.6,37,5
01-009,1,Site 01,53,F,Black,Treatment B,11/22/2015,Y,Visit 6,6,10/16/2016,330,Blood,Platelet count,x 109/L,190.41121,150,350,6
01-009,1,Site 01,53,F,Black,Treatment B,11/22/2015,Y,Visit 6,6,10/16/2016,330,Blood,RBC count,x 1012 cells/L,,4.2,5.9,6
01-009,1,Site 01,53,F,Black,Treatment B,11/22/2015,Y,Visit 6,6,10/16/2016,330,Blood,WBC count,x 109 cells/L,11.88154663,4.5,11,6
01-009,1,Site 01,53,F,Black,Treatment B,11/22/2015,Y,Visit 6,6,10/16/2016,330,Serum,Albumin,g/L,46.57750211,35,55,6
01-009,1,Site 01,53,F,Black,Treatment B,11/22/2015,Y,Visit 6,6,10/16/2016,330,Serum,Alkaline phosphatase (ALP),µkat/L,1.159319856,0.5,1.5,6
01-009,1,Site 01,53,F,Black,Treatment B,11/22/2015,Y,Visit 6,6,10/16/2016,330,Serum,"Aminotransferase, alanine (ALT)",pkat/L,,0,0.58,6
01-009,1,Site 01,53,F,Black,Treatment B,11/22/2015,Y,Visit 6,6,10/16/2016,330,Serum,"Aminotransferase, aspartate (AST)",pkat/L,0.379785216,0,0.58,6
01-009,1,Site 01,53,F,Black,Treatment B,11/22/2015,Y,Visit 6,6,10/16/2016,330,Serum,Calcium,mmol/L,,2.2,2.6,6
01-009,1,Site 01,53,F,Black,Treatment B,11/22/2015,Y,Visit 6,6,10/16/2016,330,Serum,Chloride,mmol/L,99.71950952,98,106,6
01-009,1,Site 01,53,F,Black,Treatment B,11/22/2015,Y,Visit 6,6,10/16/2016,330,Serum,Creatinine,µmol/L,155.802078,61.9,115,6
01-009,1,Site 01,53,F,Black,Treatment B,11/22/2015,Y,Visit 6,6,10/16/2016,330,Serum,Direct Bilirubin,µmol/L,0,0,5.1,6
01-009,1,Site 01,53,F,Black,Treatment B,11/22/2015,Y,Visit 6,6,10/16/2016,330,Serum,IgE,mg/L,0.50673377,0.1,0.4,6
01-009,1,Site 01,53,F,Black,Treatment B,11/22/2015,Y,Visit 6,6,10/16/2016,330,Serum,Magnesium,mmol/L,,0.62,0.99,6
01-009,1,Site 01,53,F,Black,Treatment B,11/22/2015,Y,Visit 6,6,10/16/2016,330,Serum,Potassium,mmol/L,4.00389084,3.5,5,6
01-009,1,Site 01,53,F,Black,Treatment B,11/22/2015,Y,Visit 6,6,10/16/2016,330,Serum,Sodium,mmol/L,141.8758367,136,145,6
01-009,1,Site 01,53,F,Black,Treatment B,11/22/2015,Y,Visit 6,6,10/16/2016,330,Serum,Total Bilirubin,µmol/L,14.77670839,5.1,20.5,6
01-009,1,Site 01,53,F,Black,Treatment B,11/22/2015,Y,Visit 6,6,10/16/2016,330,Vital Signs,Diastolic Blood Pressure,mmHg,67.11851168,60,80,6
01-009,1,Site 01,53,F,Black,Treatment B,11/22/2015,Y,Visit 6,6,10/16/2016,330,Vital Signs,Heart Rate,beats/minute,89.82256906,50,80,6
01-009,1,Site 01,53,F,Black,Treatment B,11/22/2015,Y,Visit 6,6,10/16/2016,330,Vital Signs,Respiratory Rate,breaths/minute,15.32239282,16,20,6
01-009,1,Site 01,53,F,Black,Treatment B,11/22/2015,Y,Visit 6,6,10/16/2016,330,Vital Signs,Systolic Blood Pressure,mmHg,113.7110825,90,120,6
01-009,1,Site 01,53,F,Black,Treatment B,11/22/2015,Y,Visit 6,6,10/16/2016,330,Vital Signs,Temperature,°C,37.29577799,36.6,37,6
01-009,1,Site 01,53,F,Black,Treatment B,11/22/2015,Y,End of Study,7,11/20/2016,365,Blood,Platelet count,x 109/L,149.2690018,150,350,7
01-009,1,Site 01,53,F,Black,Treatment B,11/22/2015,Y,End of Study,7,11/20/2016,365,Blood,RBC count,x 1012 cells/L,5.372072514,4.2,5.9,7
01-009,1,Site 01,53,F,Black,Treatment B,11/22/2015,Y,End of Study,7,11/20/2016,365,Blood,WBC count,x 109 cells/L,5.866365163,4.5,11,7
01-009,1,Site 01,53,F,Black,Treatment B,11/22/2015,Y,End of Study,7,11/20/2016,365,Serum,Albumin,g/L,51.24928448,35,55,7
01-009,1,Site 01,53,F,Black,Treatment B,11/22/2015,Y,End of Study,7,11/20/2016,365,Serum,Alkaline phosphatase (ALP),µkat/L,0.461690822,0.5,1.5,7
01-009,1,Site 01,53,F,Black,Treatment B,11/22/2015,Y,End of Study,7,11/20/2016,365,Serum,"Aminotransferase, alanine (ALT)",pkat/L,0.43469677,0,0.58,7
01-009,1,Site 01,53,F,Black,Treatment B,11/22/2015,Y,End of Study,7,11/20/2016,365,Serum,"Aminotransferase, aspartate (AST)",pkat/L,0.204319316,0,0.58,7
01-009,1,Site 01,53,F,Black,Treatment B,11/22/2015,Y,End of Study,7,11/20/2016,365,Serum,Calcium,mmol/L,2.800045739,2.2,2.6,7
01-009,1,Site 01,53,F,Black,Treatment B,11/22/2015,Y,End of Study,7,11/20/2016,365,Serum,Chloride,mmol/L,,98,106,7
01-009,1,Site 01,53,F,Black,Treatment B,11/22/2015,Y,End of Study,7,11/20/2016,365,Serum,Creatinine,µmol/L,82.25882392,61.9,115,7
01-009,1,Site 01,53,F,Black,Treatment B,11/22/2015,Y,End of Study,7,11/20/2016,365,Serum,Direct Bilirubin,µmol/L,,0,5.1,7
01-009,1,Site 01,53,F,Black,Treatment B,11/22/2015,Y,End of Study,7,11/20/2016,365,Serum,IgE,mg/L,0.062304183,0.1,0.4,7
01-009,1,Site 01,53,F,Black,Treatment B,11/22/2015,Y,End of Study,7,11/20/2016,365,Serum,Magnesium,mmol/L,0.828567673,0.62,0.99,7
01-009,1,Site 01,53,F,Black,Treatment B,11/22/2015,Y,End of Study,7,11/20/2016,365,Serum,Potassium,mmol/L,3.342173806,3.5,5,7
01-009,1,Site 01,53,F,Black,Treatment B,11/22/2015,Y,End of Study,7,11/20/2016,365,Serum,Sodium,mmol/L,143.0384336,136,145,7
01-009,1,Site 01,53,F,Black,Treatment B,11/22/2015,Y,End of Study,7,11/20/2016,365,Serum,Total Bilirubin,µmol/L,13.57780473,5.1,20.5,7
01-009,1,Site 01,53,F,Black,Treatment B,11/22/2015,Y,End of Study,7,11/20/2016,365,Vital Signs,Diastolic Blood Pressure,mmHg,46.30945049,60,80,7
01-009,1,Site 01,53,F,Black,Treatment B,11/22/2015,Y,End of Study,7,11/20/2016,365,Vital Signs,Heart Rate,beats/minute,61.33742047,50,80,7
01-009,1,Site 01,53,F,Black,Treatment B,11/22/2015,Y,End of Study,7,11/20/2016,365,Vital Signs,Respiratory Rate,breaths/minute,18.09077322,16,20,7
01-009,1,Site 01,53,F,Black,Treatment B,11/22/2015,Y,End of Study,7,11/20/2016,365,Vital Signs,Systolic Blood Pressure,mmHg,124.8533906,90,120,7
01-009,1,Site 01,53,F,Black,Treatment B,11/22/2015,Y,End of Study,7,11/20/2016,365,Vital Signs,Temperature,°C,36.68141973,36.6,37,7
01-010,1,Site 01,35,F,Black,Treatment B,1/7/2015,Y,Screening,0,1/7/2015,1,Blood,Platelet count,x 109/L,356.811884,150,350,0
01-010,1,Site 01,35,F,Black,Treatment B,1/7/2015,Y,Screening,0,1/7/2015,1,Blood,RBC count,x 1012 cells/L,5.817023491,4.2,5.9,0
01-010,1,Site 01,35,F,Black,Treatment B,1/7/2015,Y,Screening,0,1/7/2015,1,Blood,WBC count,x 109 cells/L,8.337029312,4.5,11,0
01-010,1,Site 01,35,F,Black,Treatment B,1/7/2015,Y,Screening,0,1/7/2015,1,Serum,Albumin,g/L,41.32542354,35,55,0
01-010,1,Site 01,35,F,Black,Treatment B,1/7/2015,Y,Screening,0,1/7/2015,1,Serum,Alkaline phosphatase (ALP),µkat/L,,0.5,1.5,0
01-010,1,Site 01,35,F,Black,Treatment B,1/7/2015,Y,Screening,0,1/7/2015,1,Serum,"Aminotransferase, alanine (ALT)",pkat/L,0.448393675,0,0.58,0
01-010,1,Site 01,35,F,Black,Treatment B,1/7/2015,Y,Screening,0,1/7/2015,1,Serum,"Aminotransferase, aspartate (AST)",pkat/L,0.139692203,0,0.58,0
01-010,1,Site 01,35,F,Black,Treatment B,1/7/2015,Y,Screening,0,1/7/2015,1,Serum,Calcium,mmol/L,2.232792201,2.2,2.6,0
01-010,1,Site 01,35,F,Black,Treatment B,1/7/2015,Y,Screening,0,1/7/2015,1,Serum,Chloride,mmol/L,105.4165777,98,106,0
01-010,1,Site 01,35,F,Black,Treatment B,1/7/2015,Y,Screening,0,1/7/2015,1,Serum,Creatinine,µmol/L,93.62449412,61.9,115,0
01-010,1,Site 01,35,F,Black,Treatment B,1/7/2015,Y,Screening,0,1/7/2015,1,Serum,Direct Bilirubin,µmol/L,3.44534657,0,5.1,0
01-010,1,Site 01,35,F,Black,Treatment B,1/7/2015,Y,Screening,0,1/7/2015,1,Serum,IgE,mg/L,0.297027118,0.1,0.4,0
01-010,1,Site 01,35,F,Black,Treatment B,1/7/2015,Y,Screening,0,1/7/2015,1,Serum,Magnesium,mmol/L,1.170508806,0.62,0.99,0
01-010,1,Site 01,35,F,Black,Treatment B,1/7/2015,Y,Screening,0,1/7/2015,1,Serum,Potassium,mmol/L,3.274794385,3.5,5,0
01-010,1,Site 01,35,F,Black,Treatment B,1/7/2015,Y,Screening,0,1/7/2015,1,Serum,Sodium,mmol/L,139.3487006,136,145,0
01-010,1,Site 01,35,F,Black,Treatment B,1/7/2015,Y,Screening,0,1/7/2015,1,Serum,Total Bilirubin,µmol/L,19.49240507,5.1,20.5,0
01-010,1,Site 01,35,F,Black,Treatment B,1/7/2015,Y,Screening,0,1/7/2015,1,Vital Signs,Diastolic Blood Pressure,mmHg,70.68791929,60,80,0
01-010,1,Site 01,35,F,Black,Treatment B,1/7/2015,Y,Screening,0,1/7/2015,1,Vital Signs,Heart Rate,beats/minute,77.84694419,50,80,0
01-010,1,Site 01,35,F,Black,Treatment B,1/7/2015,Y,Screening,0,1/7/2015,1,Vital Signs,Respiratory Rate,breaths/minute,15.45012229,16,20,0
01-010,1,Site 01,35,F,Black,Treatment B,1/7/2015,Y,Screening,0,1/7/2015,1,Vital Signs,Systolic Blood Pressure,mmHg,108.6925245,90,120,0
01-010,1,Site 01,35,F,Black,Treatment B,1/7/2015,Y,Screening,0,1/7/2015,1,Vital Signs,Temperature,°C,37.03170529,36.6,37,0
01-010,1,Site 01,35,F,Black,Treatment B,1/7/2015,Y,Visit 1,1,2/24/2015,49,Blood,Platelet count,x 109/L,293.5644067,150,350,1
01-010,1,Site 01,35,F,Black,Treatment B,1/7/2015,Y,Visit 1,1,2/24/2015,49,Blood,RBC count,x 1012 cells/L,5.48159494,4.2,5.9,1
01-010,1,Site 01,35,F,Black,Treatment B,1/7/2015,Y,Visit 1,1,2/24/2015,49,Blood,WBC count,x 109 cells/L,8.473418045,4.5,11,1
01-010,1,Site 01,35,F,Black,Treatment B,1/7/2015,Y,Visit 1,1,2/24/2015,49,Serum,Albumin,g/L,38.70615757,35,55,1
01-010,1,Site 01,35,F,Black,Treatment B,1/7/2015,Y,Visit 1,1,2/24/2015,49,Serum,Alkaline phosphatase (ALP),µkat/L,1.212520018,0.5,1.5,1
01-010,1,Site 01,35,F,Black,Treatment B,1/7/2015,Y,Visit 1,1,2/24/2015,49,Serum,"Aminotransferase, alanine (ALT)",pkat/L,0.711096633,0,0.58,1
01-010,1,Site 01,35,F,Black,Treatment B,1/7/2015,Y,Visit 1,1,2/24/2015,49,Serum,"Aminotransferase, aspartate (AST)",pkat/L,0.733380762,0,0.58,1
01-010,1,Site 01,35,F,Black,Treatment B,1/7/2015,Y,Visit 1,1,2/24/2015,49,Serum,Calcium,mmol/L,2.486155115,2.2,2.6,1
01-010,1,Site 01,35,F,Black,Treatment B,1/7/2015,Y,Visit 1,1,2/24/2015,49,Serum,Chloride,mmol/L,,98,106,1
01-010,1,Site 01,35,F,Black,Treatment B,1/7/2015,Y,Visit 1,1,2/24/2015,49,Serum,Creatinine,µmol/L,,61.9,115,1
01-010,1,Site 01,35,F,Black,Treatment B,1/7/2015,Y,Visit 1,1,2/24/2015,49,Serum,Direct Bilirubin,µmol/L,9.240173362,0,5.1,1
01-010,1,Site 01,35,F,Black,Treatment B,1/7/2015,Y,Visit 1,1,2/24/2015,49,Serum,IgE,mg/L,0.150003147,0.1,0.4,1
01-010,1,Site 01,35,F,Black,Treatment B,1/7/2015,Y,Visit 1,1,2/24/2015,49,Serum,Magnesium,mmol/L,0.909263492,0.62,0.99,1
01-010,1,Site 01,35,F,Black,Treatment B,1/7/2015,Y,Visit 1,1,2/24/2015,49,Serum,Potassium,mmol/L,5.947627984,3.5,5,1
01-010,1,Site 01,35,F,Black,Treatment B,1/7/2015,Y,Visit 1,1,2/24/2015,49,Serum,Sodium,mmol/L,130.8046765,136,145,1
01-010,1,Site 01,35,F,Black,Treatment B,1/7/2015,Y,Visit 1,1,2/24/2015,49,Serum,Total Bilirubin,µmol/L,16.36916136,5.1,20.5,1
01-010,1,Site 01,35,F,Black,Treatment B,1/7/2015,Y,Visit 1,1,2/24/2015,49,Vital Signs,Diastolic Blood Pressure,mmHg,57.63996157,60,80,1
01-010,1,Site 01,35,F,Black,Treatment B,1/7/2015,Y,Visit 1,1,2/24/2015,49,Vital Signs,Heart Rate,beats/minute,53.43494989,50,80,1
01-010,1,Site 01,35,F,Black,Treatment B,1/7/2015,Y,Visit 1,1,2/24/2015,49,Vital Signs,Respiratory Rate,breaths/minute,21.82902108,16,20,1
01-010,1,Site 01,35,F,Black,Treatment B,1/7/2015,Y,Visit 1,1,2/24/2015,49,Vital Signs,Systolic Blood Pressure,mmHg,104.7128997,90,120,1
01-010,1,Site 01,35,F,Black,Treatment B,1/7/2015,Y,Visit 1,1,2/24/2015,49,Vital Signs,Temperature,°C,36.9182646,36.6,37,1
01-010,1,Site 01,35,F,Black,Treatment B,1/7/2015,Y,Visit 2,2,4/23/2015,107,Blood,Platelet count,x 109/L,199.5197461,150,350,2
01-010,1,Site 01,35,F,Black,Treatment B,1/7/2015,Y,Visit 2,2,4/23/2015,107,Blood,RBC count,x 1012 cells/L,3.991091052,4.2,5.9,2
01-010,1,Site 01,35,F,Black,Treatment B,1/7/2015,Y,Visit 2,2,4/23/2015,107,Blood,WBC count,x 109 cells/L,9.246017815,4.5,11,2
01-010,1,Site 01,35,F,Black,Treatment B,1/7/2015,Y,Visit 2,2,4/23/2015,107,Serum,Albumin,g/L,32.63171383,35,55,2
01-010,1,Site 01,35,F,Black,Treatment B,1/7/2015,Y,Visit 2,2,4/23/2015,107,Serum,Alkaline phosphatase (ALP),µkat/L,2.015844861,0.5,1.5,2
01-010,1,Site 01,35,F,Black,Treatment B,1/7/2015,Y,Visit 2,2,4/23/2015,107,Serum,"Aminotransferase, alanine (ALT)",pkat/L,0.044358414,0,0.58,2
01-010,1,Site 01,35,F,Black,Treatment B,1/7/2015,Y,Visit 2,2,4/23/2015,107,Serum,"Aminotransferase, aspartate (AST)",pkat/L,0.33972638,0,0.58,2
01-010,1,Site 01,35,F,Black,Treatment B,1/7/2015,Y,Visit 2,2,4/23/2015,107,Serum,Calcium,mmol/L,2.308681545,2.2,2.6,2
01-010,1,Site 01,35,F,Black,Treatment B,1/7/2015,Y,Visit 2,2,4/23/2015,107,Serum,Chloride,mmol/L,104.4635731,98,106,2
01-010,1,Site 01,35,F,Black,Treatment B,1/7/2015,Y,Visit 2,2,4/23/2015,107,Serum,Creatinine,µmol/L,122.3807074,61.9,115,2
01-010,1,Site 01,35,F,Black,Treatment B,1/7/2015,Y,Visit 2,2,4/23/2015,107,Serum,Direct Bilirubin,µmol/L,0,0,5.1,2
01-010,1,Site 01,35,F,Black,Treatment B,1/7/2015,Y,Visit 2,2,4/23/2015,107,Serum,IgE,mg/L,0.41711129,0.1,0.4,2
01-010,1,Site 01,35,F,Black,Treatment B,1/7/2015,Y,Visit 2,2,4/23/2015,107,Serum,Magnesium,mmol/L,0.88276498,0.62,0.99,2
01-010,1,Site 01,35,F,Black,Treatment B,1/7/2015,Y,Visit 2,2,4/23/2015,107,Serum,Potassium,mmol/L,3.935389037,3.5,5,2
01-010,1,Site 01,35,F,Black,Treatment B,1/7/2015,Y,Visit 2,2,4/23/2015,107,Serum,Sodium,mmol/L,143.4886977,136,145,2
01-010,1,Site 01,35,F,Black,Treatment B,1/7/2015,Y,Visit 2,2,4/23/2015,107,Serum,Total Bilirubin,µmol/L,21.63386908,5.1,20.5,2
01-010,1,Site 01,35,F,Black,Treatment B,1/7/2015,Y,Visit 2,2,4/23/2015,107,Vital Signs,Diastolic Blood Pressure,mmHg,,60,80,2
01-010,1,Site 01,35,F,Black,Treatment B,1/7/2015,Y,Visit 2,2,4/23/2015,107,Vital Signs,Heart Rate,beats/minute,61.0339921,50,80,2
01-010,1,Site 01,35,F,Black,Treatment B,1/7/2015,Y,Visit 2,2,4/23/2015,107,Vital Signs,Respiratory Rate,breaths/minute,15.96387286,16,20,2
01-010,1,Site 01,35,F,Black,Treatment B,1/7/2015,Y,Visit 2,2,4/23/2015,107,Vital Signs,Systolic Blood Pressure,mmHg,96.57190293,90,120,2
01-010,1,Site 01,35,F,Black,Treatment B,1/7/2015,Y,Visit 2,2,4/23/2015,107,Vital Signs,Temperature,°C,36.81319832,36.6,37,2
01-010,1,Site 01,35,F,Black,Treatment B,1/7/2015,Y,Visit 3,3,6/24/2015,169,Blood,Platelet count,x 109/L,269.59193,150,350,3
01-010,1,Site 01,35,F,Black,Treatment B,1/7/2015,Y,Visit 3,3,6/24/2015,169,Blood,RBC count,x 1012 cells/L,5.276040574,4.2,5.9,3
01-010,1,Site 01,35,F,Black,Treatment B,1/7/2015,Y,Visit 3,3,6/24/2015,169,Blood,WBC count,x 109 cells/L,10.30665018,4.5,11,3
01-010,1,Site 01,35,F,Black,Treatment B,1/7/2015,Y,Visit 3,3,6/24/2015,169,Serum,Albumin,g/L,41.21609764,35,55,3
01-010,1,Site 01,35,F,Black,Treatment B,1/7/2015,Y,Visit 3,3,6/24/2015,169,Serum,Alkaline phosphatase (ALP),µkat/L,1.484219599,0.5,1.5,3
01-010,1,Site 01,35,F,Black,Treatment B,1/7/2015,Y,Visit 3,3,6/24/2015,169,Serum,"Aminotransferase, alanine (ALT)",pkat/L,0,0,0.58,3
01-010,1,Site 01,35,F,Black,Treatment B,1/7/2015,Y,Visit 3,3,6/24/2015,169,Serum,"Aminotransferase, aspartate (AST)",pkat/L,0.086002598,0,0.58,3
01-010,1,Site 01,35,F,Black,Treatment B,1/7/2015,Y,Visit 3,3,6/24/2015,169,Serum,Calcium,mmol/L,2.136020575,2.2,2.6,3
01-010,1,Site 01,35,F,Black,Treatment B,1/7/2015,Y,Visit 3,3,6/24/2015,169,Serum,Chloride,mmol/L,99.28474392,98,106,3
01-010,1,Site 01,35,F,Black,Treatment B,1/7/2015,Y,Visit 3,3,6/24/2015,169,Serum,Creatinine,µmol/L,66.69022493,61.9,115,3
01-010,1,Site 01,35,F,Black,Treatment B,1/7/2015,Y,Visit 3,3,6/24/2015,169,Serum,Direct Bilirubin,µmol/L,2.862187776,0,5.1,3
01-010,1,Site 01,35,F,Black,Treatment B,1/7/2015,Y,Visit 3,3,6/24/2015,169,Serum,IgE,mg/L,0.165386714,0.1,0.4,3
01-010,1,Site 01,35,F,Black,Treatment B,1/7/2015,Y,Visit 3,3,6/24/2015,169,Serum,Magnesium,mmol/L,1.037405046,0.62,0.99,3
01-010,1,Site 01,35,F,Black,Treatment B,1/7/2015,Y,Visit 3,3,6/24/2015,169,Serum,Potassium,mmol/L,4.478410113,3.5,5,3
01-010,1,Site 01,35,F,Black,Treatment B,1/7/2015,Y,Visit 3,3,6/24/2015,169,Serum,Sodium,mmol/L,,136,145,3
01-010,1,Site 01,35,F,Black,Treatment B,1/7/2015,Y,Visit 3,3,6/24/2015,169,Serum,Total Bilirubin,µmol/L,7.168474739,5.1,20.5,3
01-010,1,Site 01,35,F,Black,Treatment B,1/7/2015,Y,Visit 3,3,6/24/2015,169,Vital Signs,Diastolic Blood Pressure,mmHg,,60,80,3
01-010,1,Site 01,35,F,Black,Treatment B,1/7/2015,Y,Visit 3,3,6/24/2015,169,Vital Signs,Heart Rate,beats/minute,,50,80,3
01-010,1,Site 01,35,F,Black,Treatment B,1/7/2015,Y,Visit 3,3,6/24/2015,169,Vital Signs,Respiratory Rate,breaths/minute,20.01830326,16,20,3
01-010,1,Site 01,35,F,Black,Treatment B,1/7/2015,Y,Visit 3,3,6/24/2015,169,Vital Signs,Systolic Blood Pressure,mmHg,119.8761102,90,120,3
01-010,1,Site 01,35,F,Black,Treatment B,1/7/2015,Y,Visit 3,3,6/24/2015,169,Vital Signs,Temperature,°C,36.64550877,36.6,37,3
01-010,1,Site 01,35,F,Black,Treatment B,1/7/2015,Y,Visit 4,4,8/19/2015,225,Blood,Platelet count,x 109/L,145.1317998,150,350,4
01-010,1,Site 01,35,F,Black,Treatment B,1/7/2015,Y,Visit 4,4,8/19/2015,225,Blood,RBC count,x 1012 cells/L,3.297830595,4.2,5.9,4
01-010,1,Site 01,35,F,Black,Treatment B,1/7/2015,Y,Visit 4,4,8/19/2015,225,Blood,WBC count,x 109 cells/L,5.733105909,4.5,11,4
01-010,1,Site 01,35,F,Black,Treatment B,1/7/2015,Y,Visit 4,4,8/19/2015,225,Serum,Albumin,g/L,48.41209842,35,55,4
01-010,1,Site 01,35,F,Black,Treatment B,1/7/2015,Y,Visit 4,4,8/19/2015,225,Serum,Alkaline phosphatase (ALP),µkat/L,0.449581056,0.5,1.5,4
01-010,1,Site 01,35,F,Black,Treatment B,1/7/2015,Y,Visit 4,4,8/19/2015,225,Serum,"Aminotransferase, alanine (ALT)",pkat/L,0.832865337,0,0.58,4
01-010,1,Site 01,35,F,Black,Treatment B,1/7/2015,Y,Visit 4,4,8/19/2015,225,Serum,"Aminotransferase, aspartate (AST)",pkat/L,,0,0.58,4
01-010,1,Site 01,35,F,Black,Treatment B,1/7/2015,Y,Visit 4,4,8/19/2015,225,Serum,Calcium,mmol/L,2.328018717,2.2,2.6,4
01-010,1,Site 01,35,F,Black,Treatment B,1/7/2015,Y,Visit 4,4,8/19/2015,225,Serum,Chloride,mmol/L,99.98405685,98,106,4
01-010,1,Site 01,35,F,Black,Treatment B,1/7/2015,Y,Visit 4,4,8/19/2015,225,Serum,Creatinine,µmol/L,105.841094,61.9,115,4
01-010,1,Site 01,35,F,Black,Treatment B,1/7/2015,Y,Visit 4,4,8/19/2015,225,Serum,Direct Bilirubin,µmol/L,3.454063482,0,5.1,4
01-010,1,Site 01,35,F,Black,Treatment B,1/7/2015,Y,Visit 4,4,8/19/2015,225,Serum,IgE,mg/L,0.196677511,0.1,0.4,4
01-010,1,Site 01,35,F,Black,Treatment B,1/7/2015,Y,Visit 4,4,8/19/2015,225,Serum,Magnesium,mmol/L,0.711609819,0.62,0.99,4
01-010,1,Site 01,35,F,Black,Treatment B,1/7/2015,Y,Visit 4,4,8/19/2015,225,Serum,Potassium,mmol/L,6.413579718,3.5,5,4
01-010,1,Site 01,35,F,Black,Treatment B,1/7/2015,Y,Visit 4,4,8/19/2015,225,Serum,Sodium,mmol/L,140.8019997,136,145,4
01-010,1,Site 01,35,F,Black,Treatment B,1/7/2015,Y,Visit 4,4,8/19/2015,225,Serum,Total Bilirubin,µmol/L,,5.1,20.5,4
01-010,1,Site 01,35,F,Black,Treatment B,1/7/2015,Y,Visit 4,4,8/19/2015,225,Vital Signs,Diastolic Blood Pressure,mmHg,40.81491535,60,80,4
01-010,1,Site 01,35,F,Black,Treatment B,1/7/2015,Y,Visit 4,4,8/19/2015,225,Vital Signs,Heart Rate,beats/minute,54.77120766,50,80,4
01-010,1,Site 01,35,F,Black,Treatment B,1/7/2015,Y,Visit 4,4,8/19/2015,225,Vital Signs,Respiratory Rate,breaths/minute,18.76014513,16,20,4
01-010,1,Site 01,35,F,Black,Treatment B,1/7/2015,Y,Visit 4,4,8/19/2015,225,Vital Signs,Systolic Blood Pressure,mmHg,,90,120,4
01-010,1,Site 01,35,F,Black,Treatment B,1/7/2015,Y,Visit 4,4,8/19/2015,225,Vital Signs,Temperature,°C,36.98027687,36.6,37,4
01-010,1,Site 01,35,F,Black,Treatment B,1/7/2015,Y,Visit 5,5,10/11/2015,278,Blood,Platelet count,x 109/L,154.932105,150,350,5
01-010,1,Site 01,35,F,Black,Treatment B,1/7/2015,Y,Visit 5,5,10/11/2015,278,Blood,RBC count,x 1012 cells/L,3.311143509,4.2,5.9,5
01-010,1,Site 01,35,F,Black,Treatment B,1/7/2015,Y,Visit 5,5,10/11/2015,278,Blood,WBC count,x 109 cells/L,,4.5,11,5
01-010,1,Site 01,35,F,Black,Treatment B,1/7/2015,Y,Visit 5,5,10/11/2015,278,Serum,Albumin,g/L,40.66582961,35,55,5
01-010,1,Site 01,35,F,Black,Treatment B,1/7/2015,Y,Visit 5,5,10/11/2015,278,Serum,Alkaline phosphatase (ALP),µkat/L,0.456606819,0.5,1.5,5
01-010,1,Site 01,35,F,Black,Treatment B,1/7/2015,Y,Visit 5,5,10/11/2015,278,Serum,"Aminotransferase, alanine (ALT)",pkat/L,0.568743675,0,0.58,5
01-010,1,Site 01,35,F,Black,Treatment B,1/7/2015,Y,Visit 5,5,10/11/2015,278,Serum,"Aminotransferase, aspartate (AST)",pkat/L,0,0,0.58,5
01-010,1,Site 01,35,F,Black,Treatment B,1/7/2015,Y,Visit 5,5,10/11/2015,278,Serum,Calcium,mmol/L,2.232161566,2.2,2.6,5
01-010,1,Site 01,35,F,Black,Treatment B,1/7/2015,Y,Visit 5,5,10/11/2015,278,Serum,Chloride,mmol/L,98.40926725,98,106,5
01-010,1,Site 01,35,F,Black,Treatment B,1/7/2015,Y,Visit 5,5,10/11/2015,278,Serum,Creatinine,µmol/L,104.0713163,61.9,115,5
01-010,1,Site 01,35,F,Black,Treatment B,1/7/2015,Y,Visit 5,5,10/11/2015,278,Serum,Direct Bilirubin,µmol/L,0,0,5.1,5
01-010,1,Site 01,35,F,Black,Treatment B,1/7/2015,Y,Visit 5,5,10/11/2015,278,Serum,IgE,mg/L,0.179667996,0.1,0.4,5
01-010,1,Site 01,35,F,Black,Treatment B,1/7/2015,Y,Visit 5,5,10/11/2015,278,Serum,Magnesium,mmol/L,0.761994345,0.62,0.99,5
01-010,1,Site 01,35,F,Black,Treatment B,1/7/2015,Y,Visit 5,5,10/11/2015,278,Serum,Potassium,mmol/L,,3.5,5,5
01-010,1,Site 01,35,F,Black,Treatment B,1/7/2015,Y,Visit 5,5,10/11/2015,278,Serum,Sodium,mmol/L,,136,145,5
01-010,1,Site 01,35,F,Black,Treatment B,1/7/2015,Y,Visit 5,5,10/11/2015,278,Serum,Total Bilirubin,µmol/L,18.16488292,5.1,20.5,5
01-010,1,Site 01,35,F,Black,Treatment B,1/7/2015,Y,Visit 5,5,10/11/2015,278,Vital Signs,Diastolic Blood Pressure,mmHg,58.98345531,60,80,5
01-010,1,Site 01,35,F,Black,Treatment B,1/7/2015,Y,Visit 5,5,10/11/2015,278,Vital Signs,Heart Rate,beats/minute,72.92296549,50,80,5
01-010,1,Site 01,35,F,Black,Treatment B,1/7/2015,Y,Visit 5,5,10/11/2015,278,Vital Signs,Respiratory Rate,breaths/minute,19.22015546,16,20,5
01-010,1,Site 01,35,F,Black,Treatment B,1/7/2015,Y,Visit 5,5,10/11/2015,278,Vital Signs,Systolic Blood Pressure,mmHg,78.99380358,90,120,5
01-010,1,Site 01,35,F,Black,Treatment B,1/7/2015,Y,Visit 5,5,10/11/2015,278,Vital Signs,Temperature,°C,37.03475468,36.6,37,5
01-010,1,Site 01,35,F,Black,Treatment B,1/7/2015,Y,Visit 6,6,12/1/2015,329,Blood,Platelet count,x 109/L,299.2665912,150,350,6
01-010,1,Site 01,35,F,Black,Treatment B,1/7/2015,Y,Visit 6,6,12/1/2015,329,Blood,RBC count,x 1012 cells/L,,4.2,5.9,6
01-010,1,Site 01,35,F,Black,Treatment B,1/7/2015,Y,Visit 6,6,12/1/2015,329,Blood,WBC count,x 109 cells/L,3.266117658,4.5,11,6
01-010,1,Site 01,35,F,Black,Treatment B,1/7/2015,Y,Visit 6,6,12/1/2015,329,Serum,Albumin,g/L,36.08534327,35,55,6
01-010,1,Site 01,35,F,Black,Treatment B,1/7/2015,Y,Visit 6,6,12/1/2015,329,Serum,Alkaline phosphatase (ALP),µkat/L,1.08422997,0.5,1.5,6
01-010,1,Site 01,35,F,Black,Treatment B,1/7/2015,Y,Visit 6,6,12/1/2015,329,Serum,"Aminotransferase, alanine (ALT)",pkat/L,,0,0.58,6
01-010,1,Site 01,35,F,Black,Treatment B,1/7/2015,Y,Visit 6,6,12/1/2015,329,Serum,"Aminotransferase, aspartate (AST)",pkat/L,0.513201285,0,0.58,6
01-010,1,Site 01,35,F,Black,Treatment B,1/7/2015,Y,Visit 6,6,12/1/2015,329,Serum,Calcium,mmol/L,,2.2,2.6,6
01-010,1,Site 01,35,F,Black,Treatment B,1/7/2015,Y,Visit 6,6,12/1/2015,329,Serum,Chloride,mmol/L,99.49429211,98,106,6
01-010,1,Site 01,35,F,Black,Treatment B,1/7/2015,Y,Visit 6,6,12/1/2015,329,Serum,Creatinine,µmol/L,80.12241796,61.9,115,6
01-010,1,Site 01,35,F,Black,Treatment B,1/7/2015,Y,Visit 6,6,12/1/2015,329,Serum,Direct Bilirubin,µmol/L,0,0,5.1,6
01-010,1,Site 01,35,F,Black,Treatment B,1/7/2015,Y,Visit 6,6,12/1/2015,329,Serum,IgE,mg/L,0.022334168,0.1,0.4,6
01-010,1,Site 01,35,F,Black,Treatment B,1/7/2015,Y,Visit 6,6,12/1/2015,329,Serum,Magnesium,mmol/L,,0.62,0.99,6
01-010,1,Site 01,35,F,Black,Treatment B,1/7/2015,Y,Visit 6,6,12/1/2015,329,Serum,Potassium,mmol/L,4.05807642,3.5,5,6
01-010,1,Site 01,35,F,Black,Treatment B,1/7/2015,Y,Visit 6,6,12/1/2015,329,Serum,Sodium,mmol/L,134.9592918,136,145,6
01-010,1,Site 01,35,F,Black,Treatment B,1/7/2015,Y,Visit 6,6,12/1/2015,329,Serum,Total Bilirubin,µmol/L,12.06155398,5.1,20.5,6
01-010,1,Site 01,35,F,Black,Treatment B,1/7/2015,Y,Visit 6,6,12/1/2015,329,Vital Signs,Diastolic Blood Pressure,mmHg,86.87424228,60,80,6
01-010,1,Site 01,35,F,Black,Treatment B,1/7/2015,Y,Visit 6,6,12/1/2015,329,Vital Signs,Heart Rate,beats/minute,42.04078585,50,80,6
01-010,1,Site 01,35,F,Black,Treatment B,1/7/2015,Y,Visit 6,6,12/1/2015,329,Vital Signs,Respiratory Rate,breaths/minute,17.59856074,16,20,6
01-010,1,Site 01,35,F,Black,Treatment B,1/7/2015,Y,Visit 6,6,12/1/2015,329,Vital Signs,Systolic Blood Pressure,mmHg,111.8980856,90,120,6
01-010,1,Site 01,35,F,Black,Treatment B,1/7/2015,Y,Visit 6,6,12/1/2015,329,Vital Signs,Temperature,°C,36.98887287,36.6,37,6
01-010,1,Site 01,35,F,Black,Treatment B,1/7/2015,Y,End of Study,7,1/1/2016,360,Blood,Platelet count,x 109/L,142.997382,150,350,7
01-010,1,Site 01,35,F,Black,Treatment B,1/7/2015,Y,End of Study,7,1/1/2016,360,Blood,RBC count,x 1012 cells/L,5.396162079,4.2,5.9,7
01-010,1,Site 01,35,F,Black,Treatment B,1/7/2015,Y,End of Study,7,1/1/2016,360,Blood,WBC count,x 109 cells/L,7.911194307,4.5,11,7
01-010,1,Site 01,35,F,Black,Treatment B,1/7/2015,Y,End of Study,7,1/1/2016,360,Serum,Albumin,g/L,37.70886468,35,55,7
01-010,1,Site 01,35,F,Black,Treatment B,1/7/2015,Y,End of Study,7,1/1/2016,360,Serum,Alkaline phosphatase (ALP),µkat/L,1.09318046,0.5,1.5,7
01-010,1,Site 01,35,F,Black,Treatment B,1/7/2015,Y,End of Study,7,1/1/2016,360,Serum,"Aminotransferase, alanine (ALT)",pkat/L,0,0,0.58,7
01-010,1,Site 01,35,F,Black,Treatment B,1/7/2015,Y,End of Study,7,1/1/2016,360,Serum,"Aminotransferase, aspartate (AST)",pkat/L,0,0,0.58,7
01-010,1,Site 01,35,F,Black,Treatment B,1/7/2015,Y,End of Study,7,1/1/2016,360,Serum,Calcium,mmol/L,2.446318036,2.2,2.6,7
01-010,1,Site 01,35,F,Black,Treatment B,1/7/2015,Y,End of Study,7,1/1/2016,360,Serum,Chloride,mmol/L,,98,106,7
01-010,1,Site 01,35,F,Black,Treatment B,1/7/2015,Y,End of Study,7,1/1/2016,360,Serum,Creatinine,µmol/L,92.36557664,61.9,115,7
01-010,1,Site 01,35,F,Black,Treatment B,1/7/2015,Y,End of Study,7,1/1/2016,360,Serum,Direct Bilirubin,µmol/L,,0,5.1,7
01-010,1,Site 01,35,F,Black,Treatment B,1/7/2015,Y,End of Study,7,1/1/2016,360,Serum,IgE,mg/L,0.368246902,0.1,0.4,7
01-010,1,Site 01,35,F,Black,Treatment B,1/7/2015,Y,End of Study,7,1/1/2016,360,Serum,Magnesium,mmol/L,1.111360763,0.62,0.99,7
01-010,1,Site 01,35,F,Black,Treatment B,1/7/2015,Y,End of Study,7,1/1/2016,360,Serum,Potassium,mmol/L,3.743001984,3.5,5,7
01-010,1,Site 01,35,F,Black,Treatment B,1/7/2015,Y,End of Study,7,1/1/2016,360,Serum,Sodium,mmol/L,138.5072326,136,145,7
01-010,1,Site 01,35,F,Black,Treatment B,1/7/2015,Y,End of Study,7,1/1/2016,360,Serum,Total Bilirubin,µmol/L,20.0994588,5.1,20.5,7
01-010,1,Site 01,35,F,Black,Treatment B,1/7/2015,Y,End of Study,7,1/1/2016,360,Vital Signs,Diastolic Blood Pressure,mmHg,73.83686289,60,80,7
01-010,1,Site 01,35,F,Black,Treatment B,1/7/2015,Y,End of Study,7,1/1/2016,360,Vital Signs,Heart Rate,beats/minute,64.20929486,50,80,7
01-010,1,Site 01,35,F,Black,Treatment B,1/7/2015,Y,End of Study,7,1/1/2016,360,Vital Signs,Respiratory Rate,breaths/minute,21.58195752,16,20,7
01-010,1,Site 01,35,F,Black,Treatment B,1/7/2015,Y,End of Study,7,1/1/2016,360,Vital Signs,Systolic Blood Pressure,mmHg,104.9056022,90,120,7
01-010,1,Site 01,35,F,Black,Treatment B,1/7/2015,Y,End of Study,7,1/1/2016,360,Vital Signs,Temperature,°C,36.48532454,36.6,37,7
01-011,1,Site 01,33,F,Other/Mixed,Treatment A,10/4/2015,Y,Screening,0,10/4/2015,1,Blood,Platelet count,x 109/L,334.5667161,150,350,0
01-011,1,Site 01,33,F,Other/Mixed,Treatment A,10/4/2015,Y,Screening,0,10/4/2015,1,Blood,RBC count,x 1012 cells/L,5.919340477,4.2,5.9,0
01-011,1,Site 01,33,F,Other/Mixed,Treatment A,10/4/2015,Y,Screening,0,10/4/2015,1,Blood,WBC count,x 109 cells/L,11.51637579,4.5,11,0
01-011,1,Site 01,33,F,Other/Mixed,Treatment A,10/4/2015,Y,Screening,0,10/4/2015,1,Serum,Albumin,g/L,53.5083401,35,55,0
01-011,1,Site 01,33,F,Other/Mixed,Treatment A,10/4/2015,Y,Screening,0,10/4/2015,1,Serum,Alkaline phosphatase (ALP),µkat/L,,0.5,1.5,0
01-011,1,Site 01,33,F,Other/Mixed,Treatment A,10/4/2015,Y,Screening,0,10/4/2015,1,Serum,"Aminotransferase, alanine (ALT)",pkat/L,0,0,0.58,0
01-011,1,Site 01,33,F,Other/Mixed,Treatment A,10/4/2015,Y,Screening,0,10/4/2015,1,Serum,"Aminotransferase, aspartate (AST)",pkat/L,0.558008578,0,0.58,0
01-011,1,Site 01,33,F,Other/Mixed,Treatment A,10/4/2015,Y,Screening,0,10/4/2015,1,Serum,Calcium,mmol/L,2.261321474,2.2,2.6,0
01-011,1,Site 01,33,F,Other/Mixed,Treatment A,10/4/2015,Y,Screening,0,10/4/2015,1,Serum,Chloride,mmol/L,100.5516757,98,106,0
01-011,1,Site 01,33,F,Other/Mixed,Treatment A,10/4/2015,Y,Screening,0,10/4/2015,1,Serum,Creatinine,µmol/L,50.0836783,61.9,115,0
01-011,1,Site 01,33,F,Other/Mixed,Treatment A,10/4/2015,Y,Screening,0,10/4/2015,1,Serum,Direct Bilirubin,µmol/L,3.403942975,0,5.1,0
01-011,1,Site 01,33,F,Other/Mixed,Treatment A,10/4/2015,Y,Screening,0,10/4/2015,1,Serum,IgE,mg/L,0.3255039,0.1,0.4,0
01-011,1,Site 01,33,F,Other/Mixed,Treatment A,10/4/2015,Y,Screening,0,10/4/2015,1,Serum,Magnesium,mmol/L,0.881433819,0.62,0.99,0
01-011,1,Site 01,33,F,Other/Mixed,Treatment A,10/4/2015,Y,Screening,0,10/4/2015,1,Serum,Potassium,mmol/L,4.108947546,3.5,5,0
01-011,1,Site 01,33,F,Other/Mixed,Treatment A,10/4/2015,Y,Screening,0,10/4/2015,1,Serum,Sodium,mmol/L,133.4737572,136,145,0
01-011,1,Site 01,33,F,Other/Mixed,Treatment A,10/4/2015,Y,Screening,0,10/4/2015,1,Serum,Total Bilirubin,µmol/L,19.42346344,5.1,20.5,0
01-011,1,Site 01,33,F,Other/Mixed,Treatment A,10/4/2015,Y,Screening,0,10/4/2015,1,Vital Signs,Diastolic Blood Pressure,mmHg,93.43279346,60,80,0
01-011,1,Site 01,33,F,Other/Mixed,Treatment A,10/4/2015,Y,Screening,0,10/4/2015,1,Vital Signs,Heart Rate,beats/minute,56.67887729,50,80,0
01-011,1,Site 01,33,F,Other/Mixed,Treatment A,10/4/2015,Y,Screening,0,10/4/2015,1,Vital Signs,Respiratory Rate,breaths/minute,20.92415248,16,20,0
01-011,1,Site 01,33,F,Other/Mixed,Treatment A,10/4/2015,Y,Screening,0,10/4/2015,1,Vital Signs,Systolic Blood Pressure,mmHg,93.79358745,90,120,0
01-011,1,Site 01,33,F,Other/Mixed,Treatment A,10/4/2015,Y,Screening,0,10/4/2015,1,Vital Signs,Temperature,°C,36.80624594,36.6,37,0
01-011,1,Site 01,33,F,Other/Mixed,Treatment A,10/4/2015,Y,Visit 1,1,12/3/2015,61,Blood,Platelet count,x 109/L,284.6806239,150,350,1
01-011,1,Site 01,33,F,Other/Mixed,Treatment A,10/4/2015,Y,Visit 1,1,12/3/2015,61,Blood,RBC count,x 1012 cells/L,5.357880767,4.2,5.9,1
01-011,1,Site 01,33,F,Other/Mixed,Treatment A,10/4/2015,Y,Visit 1,1,12/3/2015,61,Blood,WBC count,x 109 cells/L,9.227118469,4.5,11,1
01-011,1,Site 01,33,F,Other/Mixed,Treatment A,10/4/2015,Y,Visit 1,1,12/3/2015,61,Serum,Albumin,g/L,54.74883256,35,55,1
01-011,1,Site 01,33,F,Other/Mixed,Treatment A,10/4/2015,Y,Visit 1,1,12/3/2015,61,Serum,Alkaline phosphatase (ALP),µkat/L,1.392174095,0.5,1.5,1
01-011,1,Site 01,33,F,Other/Mixed,Treatment A,10/4/2015,Y,Visit 1,1,12/3/2015,61,Serum,"Aminotransferase, alanine (ALT)",pkat/L,0,0,0.58,1
01-011,1,Site 01,33,F,Other/Mixed,Treatment A,10/4/2015,Y,Visit 1,1,12/3/2015,61,Serum,"Aminotransferase, aspartate (AST)",pkat/L,0.697009352,0,0.58,1
01-011,1,Site 01,33,F,Other/Mixed,Treatment A,10/4/2015,Y,Visit 1,1,12/3/2015,61,Serum,Calcium,mmol/L,,2.2,2.6,1
01-011,1,Site 01,33,F,Other/Mixed,Treatment A,10/4/2015,Y,Visit 1,1,12/3/2015,61,Serum,Chloride,mmol/L,,98,106,1
01-011,1,Site 01,33,F,Other/Mixed,Treatment A,10/4/2015,Y,Visit 1,1,12/3/2015,61,Serum,Creatinine,µmol/L,98.43759234,61.9,115,1
01-011,1,Site 01,33,F,Other/Mixed,Treatment A,10/4/2015,Y,Visit 1,1,12/3/2015,61,Serum,Direct Bilirubin,µmol/L,4.604882257,0,5.1,1
01-011,1,Site 01,33,F,Other/Mixed,Treatment A,10/4/2015,Y,Visit 1,1,12/3/2015,61,Serum,IgE,mg/L,0.382048056,0.1,0.4,1
01-011,1,Site 01,33,F,Other/Mixed,Treatment A,10/4/2015,Y,Visit 1,1,12/3/2015,61,Serum,Magnesium,mmol/L,0.805825949,0.62,0.99,1
01-011,1,Site 01,33,F,Other/Mixed,Treatment A,10/4/2015,Y,Visit 1,1,12/3/2015,61,Serum,Potassium,mmol/L,5.354076372,3.5,5,1
01-011,1,Site 01,33,F,Other/Mixed,Treatment A,10/4/2015,Y,Visit 1,1,12/3/2015,61,Serum,Sodium,mmol/L,137.6184398,136,145,1
01-011,1,Site 01,33,F,Other/Mixed,Treatment A,10/4/2015,Y,Visit 1,1,12/3/2015,61,Serum,Total Bilirubin,µmol/L,14.17306233,5.1,20.5,1
01-011,1,Site 01,33,F,Other/Mixed,Treatment A,10/4/2015,Y,Visit 1,1,12/3/2015,61,Vital Signs,Diastolic Blood Pressure,mmHg,70.17993618,60,80,1
01-011,1,Site 01,33,F,Other/Mixed,Treatment A,10/4/2015,Y,Visit 1,1,12/3/2015,61,Vital Signs,Heart Rate,beats/minute,52.75210731,50,80,1
01-011,1,Site 01,33,F,Other/Mixed,Treatment A,10/4/2015,Y,Visit 1,1,12/3/2015,61,Vital Signs,Respiratory Rate,breaths/minute,17.32493324,16,20,1
01-011,1,Site 01,33,F,Other/Mixed,Treatment A,10/4/2015,Y,Visit 1,1,12/3/2015,61,Vital Signs,Systolic Blood Pressure,mmHg,107.8457436,90,120,1
01-011,1,Site 01,33,F,Other/Mixed,Treatment A,10/4/2015,Y,Visit 1,1,12/3/2015,61,Vital Signs,Temperature,°C,36.8148662,36.6,37,1
01-011,1,Site 01,33,F,Other/Mixed,Treatment A,10/4/2015,Y,Unscheduled 1.1,1.1,12/11/2015,69,Blood,Platelet count,x 109/L,203.7943327,150,350,1.1
01-011,1,Site 01,33,F,Other/Mixed,Treatment A,10/4/2015,Y,Unscheduled 1.1,1.1,12/11/2015,69,Blood,RBC count,x 1012 cells/L,5.192319497,4.2,5.9,1.1
01-011,1,Site 01,33,F,Other/Mixed,Treatment A,10/4/2015,Y,Unscheduled 1.1,1.1,12/11/2015,69,Blood,WBC count,x 109 cells/L,6.79530151,4.5,11,1.1
01-011,1,Site 01,33,F,Other/Mixed,Treatment A,10/4/2015,Y,Unscheduled 1.1,1.1,12/11/2015,69,Serum,Albumin,g/L,48.21081505,35,55,1.1
01-011,1,Site 01,33,F,Other/Mixed,Treatment A,10/4/2015,Y,Unscheduled 1.1,1.1,12/11/2015,69,Serum,Alkaline phosphatase (ALP),µkat/L,1.549648073,0.5,1.5,1.1
01-011,1,Site 01,33,F,Other/Mixed,Treatment A,10/4/2015,Y,Unscheduled 1.1,1.1,12/11/2015,69,Serum,"Aminotransferase, alanine (ALT)",pkat/L,0.397614827,0,0.58,1.1
01-011,1,Site 01,33,F,Other/Mixed,Treatment A,10/4/2015,Y,Unscheduled 1.1,1.1,12/11/2015,69,Serum,"Aminotransferase, aspartate (AST)",pkat/L,,0,0.58,1.1
01-011,1,Site 01,33,F,Other/Mixed,Treatment A,10/4/2015,Y,Unscheduled 1.1,1.1,12/11/2015,69,Serum,Calcium,mmol/L,2.542126729,2.2,2.6,1.1
01-011,1,Site 01,33,F,Other/Mixed,Treatment A,10/4/2015,Y,Unscheduled 1.1,1.1,12/11/2015,69,Serum,Chloride,mmol/L,106.8549525,98,106,1.1
01-011,1,Site 01,33,F,Other/Mixed,Treatment A,10/4/2015,Y,Unscheduled 1.1,1.1,12/11/2015,69,Serum,Creatinine,µmol/L,160.9837508,61.9,115,1.1
01-011,1,Site 01,33,F,Other/Mixed,Treatment A,10/4/2015,Y,Unscheduled 1.1,1.1,12/11/2015,69,Serum,Direct Bilirubin,µmol/L,2.568637566,0,5.1,1.1
01-011,1,Site 01,33,F,Other/Mixed,Treatment A,10/4/2015,Y,Unscheduled 1.1,1.1,12/11/2015,69,Serum,IgE,mg/L,0.168065681,0.1,0.4,1.1
01-011,1,Site 01,33,F,Other/Mixed,Treatment A,10/4/2015,Y,Unscheduled 1.1,1.1,12/11/2015,69,Serum,Magnesium,mmol/L,0.495864173,0.62,0.99,1.1
01-011,1,Site 01,33,F,Other/Mixed,Treatment A,10/4/2015,Y,Unscheduled 1.1,1.1,12/11/2015,69,Serum,Potassium,mmol/L,4.694902801,3.5,5,1.1
01-011,1,Site 01,33,F,Other/Mixed,Treatment A,10/4/2015,Y,Unscheduled 1.1,1.1,12/11/2015,69,Serum,Sodium,mmol/L,150.6807497,136,145,1.1
01-011,1,Site 01,33,F,Other/Mixed,Treatment A,10/4/2015,Y,Unscheduled 1.1,1.1,12/11/2015,69,Serum,Total Bilirubin,µmol/L,13.82992424,5.1,20.5,1.1
01-011,1,Site 01,33,F,Other/Mixed,Treatment A,10/4/2015,Y,Unscheduled 1.1,1.1,12/11/2015,69,Vital Signs,Diastolic Blood Pressure,mmHg,74.31508681,60,80,1.1
01-011,1,Site 01,33,F,Other/Mixed,Treatment A,10/4/2015,Y,Unscheduled 1.1,1.1,12/11/2015,69,Vital Signs,Heart Rate,beats/minute,74.5019825,50,80,1.1
01-011,1,Site 01,33,F,Other/Mixed,Treatment A,10/4/2015,Y,Unscheduled 1.1,1.1,12/11/2015,69,Vital Signs,Respiratory Rate,breaths/minute,14.85876401,16,20,1.1
01-011,1,Site 01,33,F,Other/Mixed,Treatment A,10/4/2015,Y,Unscheduled 1.1,1.1,12/11/2015,69,Vital Signs,Systolic Blood Pressure,mmHg,102.4429248,90,120,1.1
01-011,1,Site 01,33,F,Other/Mixed,Treatment A,10/4/2015,Y,Unscheduled 1.1,1.1,12/11/2015,69,Vital Signs,Temperature,°C,36.88446217,36.6,37,1.1
01-011,1,Site 01,33,F,Other/Mixed,Treatment A,10/4/2015,Y,Unscheduled 1.2,1.2,12/18/2015,76,Blood,Platelet count,x 109/L,92.00299373,150,350,1.2
01-011,1,Site 01,33,F,Other/Mixed,Treatment A,10/4/2015,Y,Unscheduled 1.2,1.2,12/18/2015,76,Blood,RBC count,x 1012 cells/L,5.239884484,4.2,5.9,1.2
01-011,1,Site 01,33,F,Other/Mixed,Treatment A,10/4/2015,Y,Unscheduled 1.2,1.2,12/18/2015,76,Blood,WBC count,x 109 cells/L,9.241674013,4.5,11,1.2
01-011,1,Site 01,33,F,Other/Mixed,Treatment A,10/4/2015,Y,Unscheduled 1.2,1.2,12/18/2015,76,Serum,Albumin,g/L,50.95712836,35,55,1.2
01-011,1,Site 01,33,F,Other/Mixed,Treatment A,10/4/2015,Y,Unscheduled 1.2,1.2,12/18/2015,76,Serum,Alkaline phosphatase (ALP),µkat/L,0.565226746,0.5,1.5,1.2
01-011,1,Site 01,33,F,Other/Mixed,Treatment A,10/4/2015,Y,Unscheduled 1.2,1.2,12/18/2015,76,Serum,"Aminotransferase, alanine (ALT)",pkat/L,0.235670844,0,0.58,1.2
01-011,1,Site 01,33,F,Other/Mixed,Treatment A,10/4/2015,Y,Unscheduled 1.2,1.2,12/18/2015,76,Serum,"Aminotransferase, aspartate (AST)",pkat/L,0.69055428,0,0.58,1.2
01-011,1,Site 01,33,F,Other/Mixed,Treatment A,10/4/2015,Y,Unscheduled 1.2,1.2,12/18/2015,76,Serum,Calcium,mmol/L,2.588731812,2.2,2.6,1.2
01-011,1,Site 01,33,F,Other/Mixed,Treatment A,10/4/2015,Y,Unscheduled 1.2,1.2,12/18/2015,76,Serum,Chloride,mmol/L,103.2605071,98,106,1.2
01-011,1,Site 01,33,F,Other/Mixed,Treatment A,10/4/2015,Y,Unscheduled 1.2,1.2,12/18/2015,76,Serum,Creatinine,µmol/L,50.0735148,61.9,115,1.2
01-011,1,Site 01,33,F,Other/Mixed,Treatment A,10/4/2015,Y,Unscheduled 1.2,1.2,12/18/2015,76,Serum,Direct Bilirubin,µmol/L,0,0,5.1,1.2
01-011,1,Site 01,33,F,Other/Mixed,Treatment A,10/4/2015,Y,Unscheduled 1.2,1.2,12/18/2015,76,Serum,IgE,mg/L,0.168876276,0.1,0.4,1.2
01-011,1,Site 01,33,F,Other/Mixed,Treatment A,10/4/2015,Y,Unscheduled 1.2,1.2,12/18/2015,76,Serum,Magnesium,mmol/L,0.62442103,0.62,0.99,1.2
01-011,1,Site 01,33,F,Other/Mixed,Treatment A,10/4/2015,Y,Unscheduled 1.2,1.2,12/18/2015,76,Serum,Potassium,mmol/L,3.494515827,3.5,5,1.2
01-011,1,Site 01,33,F,Other/Mixed,Treatment A,10/4/2015,Y,Unscheduled 1.2,1.2,12/18/2015,76,Serum,Sodium,mmol/L,144.2223115,136,145,1.2
01-011,1,Site 01,33,F,Other/Mixed,Treatment A,10/4/2015,Y,Unscheduled 1.2,1.2,12/18/2015,76,Serum,Total Bilirubin,µmol/L,18.13958069,5.1,20.5,1.2
01-011,1,Site 01,33,F,Other/Mixed,Treatment A,10/4/2015,Y,Unscheduled 1.2,1.2,12/18/2015,76,Vital Signs,Diastolic Blood Pressure,mmHg,57.46711472,60,80,1.2
01-011,1,Site 01,33,F,Other/Mixed,Treatment A,10/4/2015,Y,Unscheduled 1.2,1.2,12/18/2015,76,Vital Signs,Heart Rate,beats/minute,80.53325023,50,80,1.2
01-011,1,Site 01,33,F,Other/Mixed,Treatment A,10/4/2015,Y,Unscheduled 1.2,1.2,12/18/2015,76,Vital Signs,Respiratory Rate,breaths/minute,24.69810717,16,20,1.2
01-011,1,Site 01,33,F,Other/Mixed,Treatment A,10/4/2015,Y,Unscheduled 1.2,1.2,12/18/2015,76,Vital Signs,Systolic Blood Pressure,mmHg,123.2806868,90,120,1.2
01-011,1,Site 01,33,F,Other/Mixed,Treatment A,10/4/2015,Y,Unscheduled 1.2,1.2,12/18/2015,76,Vital Signs,Temperature,°C,36.91326405,36.6,37,1.2
01-011,1,Site 01,33,F,Other/Mixed,Treatment A,10/4/2015,Y,Visit 2,2,1/24/2016,113,Blood,Platelet count,x 109/L,437.5278929,150,350,2
01-011,1,Site 01,33,F,Other/Mixed,Treatment A,10/4/2015,Y,Visit 2,2,1/24/2016,113,Blood,RBC count,x 1012 cells/L,3.913516267,4.2,5.9,2
01-011,1,Site 01,33,F,Other/Mixed,Treatment A,10/4/2015,Y,Visit 2,2,1/24/2016,113,Blood,WBC count,x 109 cells/L,5.394848376,4.5,11,2
01-011,1,Site 01,33,F,Other/Mixed,Treatment A,10/4/2015,Y,Visit 2,2,1/24/2016,113,Serum,Albumin,g/L,37.94778862,35,55,2
01-011,1,Site 01,33,F,Other/Mixed,Treatment A,10/4/2015,Y,Visit 2,2,1/24/2016,113,Serum,Alkaline phosphatase (ALP),µkat/L,0.407567663,0.5,1.5,2
01-011,1,Site 01,33,F,Other/Mixed,Treatment A,10/4/2015,Y,Visit 2,2,1/24/2016,113,Serum,"Aminotransferase, alanine (ALT)",pkat/L,0.591418862,0,0.58,2
01-011,1,Site 01,33,F,Other/Mixed,Treatment A,10/4/2015,Y,Visit 2,2,1/24/2016,113,Serum,"Aminotransferase, aspartate (AST)",pkat/L,0.054395105,0,0.58,2
01-011,1,Site 01,33,F,Other/Mixed,Treatment A,10/4/2015,Y,Visit 2,2,1/24/2016,113,Serum,Calcium,mmol/L,2.214968379,2.2,2.6,2
01-011,1,Site 01,33,F,Other/Mixed,Treatment A,10/4/2015,Y,Visit 2,2,1/24/2016,113,Serum,Chloride,mmol/L,100.0427375,98,106,2
01-011,1,Site 01,33,F,Other/Mixed,Treatment A,10/4/2015,Y,Visit 2,2,1/24/2016,113,Serum,Creatinine,µmol/L,62.10490715,61.9,115,2
01-011,1,Site 01,33,F,Other/Mixed,Treatment A,10/4/2015,Y,Visit 2,2,1/24/2016,113,Serum,Direct Bilirubin,µmol/L,0.062347154,0,5.1,2
01-011,1,Site 01,33,F,Other/Mixed,Treatment A,10/4/2015,Y,Visit 2,2,1/24/2016,113,Serum,IgE,mg/L,0.037844157,0.1,0.4,2
01-011,1,Site 01,33,F,Other/Mixed,Treatment A,10/4/2015,Y,Visit 2,2,1/24/2016,113,Serum,Magnesium,mmol/L,0.994018893,0.62,0.99,2
01-011,1,Site 01,33,F,Other/Mixed,Treatment A,10/4/2015,Y,Visit 2,2,1/24/2016,113,Serum,Potassium,mmol/L,4.243812554,3.5,5,2
01-011,1,Site 01,33,F,Other/Mixed,Treatment A,10/4/2015,Y,Visit 2,2,1/24/2016,113,Serum,Sodium,mmol/L,135.8504334,136,145,2
01-011,1,Site 01,33,F,Other/Mixed,Treatment A,10/4/2015,Y,Visit 2,2,1/24/2016,113,Serum,Total Bilirubin,µmol/L,22.23822963,5.1,20.5,2
01-011,1,Site 01,33,F,Other/Mixed,Treatment A,10/4/2015,Y,Visit 2,2,1/24/2016,113,Vital Signs,Diastolic Blood Pressure,mmHg,,60,80,2
01-011,1,Site 01,33,F,Other/Mixed,Treatment A,10/4/2015,Y,Visit 2,2,1/24/2016,113,Vital Signs,Heart Rate,beats/minute,60.4541965,50,80,2
01-011,1,Site 01,33,F,Other/Mixed,Treatment A,10/4/2015,Y,Visit 2,2,1/24/2016,113,Vital Signs,Respiratory Rate,breaths/minute,17.80531626,16,20,2
01-011,1,Site 01,33,F,Other/Mixed,Treatment A,10/4/2015,Y,Visit 2,2,1/24/2016,113,Vital Signs,Systolic Blood Pressure,mmHg,113.6715825,90,120,2
