{
  "input": {
    "datatab-datafile": {
      "name": [
        "fullSDTM.csv"
      ],
      "size": [
        3194906
      ],
      "type": [
        "text/csv"
      ],
      "datapath": [
        "0.csv"
      ]
    },
    "datatab-select_file": "fullSDTM.csv"
  },
  "output": {
    "datatab-data_preview": {
      "x": {
        "style": "bootstrap",
        "filter": "none",
        "extensions": [
          "Scroller"
        ],
        "caption": "<caption>fullSDTM.csv<\/caption>",
        "container": "<table class=\"table table-condensed\">\n  <thead>\n    <tr>\n      <th>USUBJID<\/th>\n      <th>SITEID<\/th>\n      <th>SITE<\/th>\n      <th>AGE<\/th>\n      <th>SEX<\/th>\n      <th>RACE<\/th>\n      <th>ARM<\/th>\n      <th>RFSTDTC<\/th>\n      <th>SAFFL<\/th>\n      <th>VISIT<\/th>\n      <th>VISITNUM<\/th>\n      <th>DT<\/th>\n      <th>DY<\/th>\n      <th>CAT<\/th>\n      <th>TEST<\/th>\n      <th>STRESU<\/th>\n      <th>STRESN<\/th>\n      <th>STNRLO<\/th>\n      <th>STNRHI<\/th>\n      <th>VISITN<\/th>\n    <\/tr>\n  <\/thead>\n<\/table>",
        "options": {
          "scrollY": 400,
          "scrollX": true,
          "columnDefs": [
            {
              "className": "dt-right",
              "targets": [
                1,
                3,
                10,
                12,
                16,
                17,
                18,
                19
              ]
            }
          ],
          "order": [

          ],
          "autoWidth": false,
          "orderClasses": false,
          "ajax": {
            "type": "POST",
            "data": "function(d) {\nd.search.caseInsensitive = true;\nd.search.smart = true;\nd.escape = true;\nvar encodeAmp = function(x) { x.value = x.value.replace(/&/g, \"%26\"); }\nencodeAmp(d.search);\n$.each(d.columns, function(i, v) {encodeAmp(v.search);});\n}"
          },
          "serverSide": true,
          "processing": true
        },
        "selection": {
          "mode": "multiple",
          "selected": null,
          "target": "row"
        }
      },
      "evals": [
        "options.ajax.data"
      ],
      "jsHooks": [

      ],
      "deps": [
        {
          "name": "dt-core-bootstrap",
          "version": "1.10.16",
          "src": {
            "href": "dt-core-bootstrap-1.10.16"
          },
          "meta": null,
          "script": [
            "js/jquery.dataTables.min.js",
            "js/dataTables.bootstrap.min.js"
          ],
          "stylesheet": [
            "css/dataTables.bootstrap.min.css",
            "css/dataTables.bootstrap.extra.css"
          ],
          "head": null,
          "attachment": null,
          "package": null,
          "all_files": false
        },
        {
          "name": "dt-ext-scroller-bootstrap",
          "version": "1.10.16",
          "src": {
            "href": "dt-ext-scroller-bootstrap-1.10.16"
          },
          "meta": null,
          "script": "js/dataTables.scroller.min.js",
          "stylesheet": "css/scroller.bootstrap.min.css",
          "head": null,
          "attachment": null,
          "package": null,
          "all_files": false
        },
        {
          "name": "jquery",
          "version": "1.11.3",
          "src": {
            "href": "jquery-1.11.3"
          },
          "meta": null,
          "script": "jquery.min.js",
          "stylesheet": null,
          "head": null,
          "attachment": null,
          "package": null,
          "all_files": true
        },
        {
          "name": "crosstalk",
          "version": "1.0.0",
          "src": {
            "href": "crosstalk-1.0.0"
          },
          "meta": null,
          "script": "js/crosstalk.min.js",
          "stylesheet": "css/crosstalk.css",
          "head": null,
          "attachment": null,
          "package": null,
          "all_files": true
        }
      ]
    }
  }
}
